t,ang_acc_x,ang_acc_y,ang_acc_z,a_vel_x,a_vel_y,a_vel_z,quat_x,quat_y,quat_z,quat_w,acc_x,acc_y,acc_z,l_vel_x,l_vel_y,l_vel_z,pos_x,pos_y,pos_z,mot_1,mot_2,mot_3,mot_4,dmot_1,dmot_2,dmot_3,dmot_4,vbat
13.18,-2.067574537971971,0.1071894604016786,-0.4858882184595009,0.0038505662930429,-0.001033031769532,0.0128078986416019,0.0054658750816325,-0.0015928373473508,0.0224238400069126,0.9997321925056796,-0.0016771342359348,-0.0051075671626816,9.989416420117903,0.0101260136729898,0.0644231213938163,0.0513093334448686,-0.0071022953462408,1.5884179937329328,1.150900065700764,1167.3932313472176,1123.5321607090755,1122.6431640073442,1163.095038160824,26.808777047922728,365.16723385574306,682.8507090368316,-322.1665656996671,160.80480080943795
13.1825,-2.0338604443971007,0.3287627772331628,-0.7181437226025272,-0.0022005907256344,-0.0011640787373178,0.0099511608533694,0.0054352883759449,-0.0015347662937548,0.0224224097251159,0.9997324854037531,-0.0021149936754032,-0.0042124144134116,9.988999341106595,0.0100549746108028,0.0644662328679444,0.0517839804344426,-0.0070868747415665,1.5885783755989582,1.151030434206635,1167.3379810712083,1124.4708686707656,1124.3012251771552,1162.354496940129,-87.58202460038315,362.9915258667439,635.1771793780616,-242.96881878754743,160.80316031532425
13.185,-1.8680983250211431,0.5535694488356979,-0.8547498799293382,-0.0080475765990005,-0.0003602959402833,0.0066106507460072,0.0054078160139239,-0.0014787091937365,0.022412421879905,0.9997329466701422,-0.0023968818920132,-0.0034677247386869,9.98829201831555,0.0099948177186612,0.0645128339001083,0.0522524955277174,-0.0070742446284186,1.5887420759679112,1.1511628238057536,1166.9553212242156,1125.3471183384095,1125.819049904235,1161.880194066886,-247.40703520556428,343.4828268593038,635.0267987558153,-127.71494410074222,160.80154865374877
13.1875,-1.5186214245214025,0.7691494104879497,-0.8976490496700256,-0.0139878242635649,0.0020055868142319,0.0027934669060932,0.0053812218642937,-0.0014295581735169,0.0223940519314472,0.9997335768705984,-0.0024597846463905,-0.0029339288367746,9.987333956359118,0.0099490075244623,0.0645588657461835,0.0527137425689605,-0.0070637068810087,1.588907816541936,1.1512971172321627,1166.1009458951808,1126.1882828050618,1127.4763591709336,1161.715922219625,-377.2405144962545,258.6926687548899,578.85060263459,16.744043932479748,160.79966097131123
13.19,-1.1180563571527575,0.861948877068869,-0.8428170002744468,-0.0174626102173064,0.0056011453675308,0.0001689478250634,0.0053527858309368,-0.0013928158043162,0.0223648986862177,0.9997344356139028,-0.0022328107769712,-0.0026729889721385,9.98616677303252,0.0099199019922525,0.0646008740465371,0.0531667814332706,-0.0070543088728747,1.589073920211444,1.1514336927974973,1165.0691186517347,1126.6405816821837,1128.7133029174074,1161.9639142865483,-469.86200724779275,119.5249525055528,457.3376470879988,187.4046853081543,160.79813520147638
13.1925,-0.6327201003480092,0.8319573486595864,-0.7196305570030872,-0.0191929593318924,0.0099505109000217,-0.0015364783437845,0.0053239698775632,-0.0013733157045812,0.0223247908739931,0.9997355106825544,-0.0016581030611785,-0.0026554738856818,9.984832433525279,0.0099090146086506,0.0646366048786294,0.0536104266118465,-0.0070455378563431,1.589239516655332,1.1515722355364648,1163.7516358589417,1126.7859075675897,1129.763047406374,1162.6529456461662,-561.019741339445,5.837316300448034,378.25330432013743,352.04335964389384,160.79666801689945
13.195,-0.0984222142551387,0.7006168297579188,-0.5616999839850181,-0.0199192891967696,0.0133751585517551,-0.002585284417033,0.0052961721474449,-0.0013739751924665,0.0222759924633039,0.9997367392891132,-0.0007153075157805,-0.0028459338365509,9.983373279595016,0.0099167537188013,0.0646645633887781,0.0540439585710838,-0.0070372783971558,1.58940428332918,1.151712066531532,1162.264019945037,1126.669768263686,1130.6045694390084,1163.7241310847683,-611.8647259891385,-104.72217922472092,269.4086979068369,516.2952622853145,160.79525583716165
13.1975,0.4730285389612614,0.4771246610370722,-0.383259532097664,-0.0199014632604318,0.0149935561995996,-0.0032439096973046,0.0052732606945638,-0.0013930378265864,0.0222240012320955,0.9997379799939003,0.0005269725399961,-0.0031524884953228,9.981830709257334,0.0099421326870084,0.06468418574119,0.0544669156888853,-0.0070287792962577,1.5895688039289027,1.1518521957153487,1160.6923122289963,1126.262296671466,1131.110090895908,1165.2344219575923,-671.4873768222193,-233.53272552654727,122.74928009585793,742.3295031123165,160.79391695484287
13.2,1.1699096239488092,0.1572154154542586,-0.1633143088287984,-0.0187606976418664,0.0153848179909674,-0.0037555352014846,0.0052603647454677,-0.0014279832263941,0.0221767322140763,0.9997390332739524,0.0019908584854371,-0.0034542088101281,9.980244389804447,0.0099830615199882,0.0646956208868097,0.0548791553991252,-0.0070185389080098,1.5897323678758108,1.1519928955911127,1158.9065830609254,1125.5021046360528,1131.2183158394876,1167.4357786003304,-606.5042475399839,-309.4985610187876,-55.17645237386252,839.383977725225,160.79240303702326
13.2025,1.7258241178215235,-0.1140334294872369,0.0167454502824935,-0.0163792743820237,0.0146466013949985,-0.0037732169513974,0.005261873893616,-0.001475339109676,0.0221398377187188,0.9997397565095568,0.003585991374774,-0.0036423419967054,9.978651866134296,0.0100358645533257,0.0646994882915996,0.0552810308167321,-0.0070049555592672,1.589895039016618,1.1521336463134264,1157.659790991296,1124.714803866372,1130.8342086340383,1169.431341846219,-414.3778118850065,-323.3456563237912,-256.41404803978367,777.9319646895784,160.79122393786773
13.205,2.197728662503771,-0.3551849697787543,0.1873380414495001,-0.0119046250620457,0.0132293922182274,-0.0032317587184859,0.0052755084097227,-0.0015314223230654,0.022115714492504,0.9997401144434144,0.0052230394941911,-0.0037402460810685,9.977089033172502,0.0100955755625107,0.0646960850676462,0.0556740372922742,-0.0069878254500813,1.5900575722669494,1.152274555536522,1156.8346940015008,1123.8853763544344,1129.9362455992891,1171.3254384237775,-239.09090008046613,-341.1286467973465,-503.18174723571246,740.2168336162612,160.79013618588078
13.2075,2.58522222577671,-0.5869172396690177,0.3789666374419667,-0.0040511560442179,0.0115224591548007,-0.00221302994631,0.0052972098616231,-0.0015915280446417,0.0221078508037537,0.999740060269773,0.0068009249615315,-0.0038067151948415,9.975588586734991,0.0101569162326862,0.064685727291906,0.05606005246028,-0.0069667041510942,1.5902205891128496,1.1524151733216033,1156.464336490894,1123.0091606323856,1128.3182998978605,1173.1324260142997,-25.956397919613245,-276.4945452336656,-664.6245843408321,539.0170095258394,160.78894259138008
13.21,2.702972444021873,-0.7232443327980022,0.5294312848078925,0.0040388342075336,0.0099497169011386,-0.0012933901591156,0.0053230962630296,-0.0016509918460213,0.0221159923128359,0.9997396311486993,0.0082284344686123,-0.0038983639016363,9.974179153571276,0.0102143630321011,0.0646690584835425,0.056440898095077,-0.0069413540591651,1.590384483129772,1.1525555921838648,1156.7049120119027,1122.5029036282658,1126.6131226775844,1174.0205234714072,202.56710130962816,-132.22921825038364,-722.5407003489416,190.14044244506047,160.78804512910685
13.2125,2.5623584835429916,-0.7926956840506029,0.672411835089302,0.012789523654583,0.007667749650396,-0.0003140904161404,0.0053484885125026,-0.0017047122345416,0.0221319034713655,0.999739045201855,0.0094131631152491,-0.0040895514753751,9.97288526544616,0.0102621419734521,0.0646470988824393,0.0568182993351544,-0.0069135107188809,1.5905486360063548,1.1526967661465897,1157.4771719974424,1122.3480145411336,1124.7055963961152,1174.083128226525,382.1253088308218,5.172902134018961,-765.3911288066115,-119.42236992233676,160.7872530606694
13.215,2.1995993047165228,-0.8034486143976554,0.8069199967663739,0.0213790756515677,0.0050660057166839,0.0008463478950016,0.0053755903690296,-0.0017488456378514,0.0221484173780028,0.9997384560058948,0.0102983018917961,-0.0043209353287762,9.9717255317172,0.0102960886706035,0.0646219937289477,0.0571927555754891,-0.0068850343440161,1.5907121286389847,1.152839502288975,1158.6155385560564,1122.528768138936,1122.786167033552,1173.4234116217956,518.7799026413003,149.26250890218793,-730.8447263565307,-418.8478329394711,160.78655145831564
13.2175,1.600043490238214,-0.7480221649299335,0.9201134347354162,0.0287291217807883,0.0027883983366985,0.0024201665749507,0.0054048355449524,-0.0017840474567891,0.0221612047098529,0.9997379559535178,0.0109217897805911,-0.0045739890353174,9.970714165731412,0.0103144635685583,0.0645959653946367,0.0575646253763499,-0.0068577397062832,1.59087436013395,1.1529840619517506,1160.0710715106493,1123.0943270856446,1121.051372764332,1171.9888890618274,677.8079635827758,313.8670953761412,-675.3984873158369,-751.9180971088377,160.78596230070124
13.22,0.7029459390471668,-0.6214487020629597,1.0059290247045058,0.0343920910586155,0.0007936023376941,0.0049449053981245,0.0054352099085046,-0.0018139301861525,0.0221715994366332,0.9997375149488992,0.0113838549259157,-0.0048640759741156,9.969861011568351,0.0103180969584438,0.0645711539972236,0.0579342274228809,-0.0068332173938228,1.59103448312859,1.153131273090344,1162.0045783739708,1124.0981036158169,1119.4091745969724,1169.6638211362508,713.0643899390689,394.58302610654414,-506.0286783013095,-892.9476393852796,160.7853891321784
13.2225,-0.0881880608702212,-0.4808931435932623,1.0119353133611713,0.0349459369136447,-0.0003094110759022,0.0077613795382599,0.0054678865118108,-0.0018346343756965,0.0221843312614667,0.9997370284237213,0.0116383375139379,-0.0051630018581546,9.969171543506388,0.0103085858306039,0.0645498731603427,0.0583017623468901,-0.0068119240349809,1.5911918125916948,1.1532815006259187,1163.636393460344,1125.0672422161767,1118.521229372826,1167.524150864902,625.1163140582655,378.4944858914813,-245.26752090091907,-818.6747029851895,160.78502502803943
13.225,-0.7860627875931973,-0.3197300261738752,0.9230336002392958,0.0306092560682338,-0.0010337481131218,0.0113318331448874,0.0055022180025067,-0.0018412096426316,0.02220614912555,0.9997363591658316,0.0116160368916318,-0.005481006841112,9.968647280150426,0.0102883778415431,0.06453382678208,0.0586679941684031,-0.0067932877273609,1.5913465978081227,1.1534335392462622,1165.1301599442615,1125.9905760452739,1118.182836992468,1165.5704476213257,590.2432806563852,361.63662198736154,-32.90068407276917,-736.1191989764152,160.78477937698716
13.2275,-1.392770122500797,-0.1159271756143733,0.6930902078248659,0.0224717811489872,-0.0016582106927709,0.0155178173248036,0.0055378064416807,-0.0018352782811866,0.0222365217913956,0.9997355155550536,0.0113758030197569,-0.0058275500674111,9.968284835673137,0.0102600422249973,0.0645241631254774,0.0590340540127329,-0.0067759192964794,1.5915005307015286,1.153585393483397,1166.5876098636263,1126.875425326114,1118.356725952462,1163.8435548700193,455.4810423995347,274.895466694218,140.2117642473294,-492.26086177310697,160.78461960045647
13.23,-1.6694020043134474,0.0544323587641842,0.4089202204324237,0.0156366999716364,-0.0019927523500547,0.0180922669872452,0.005569557841664,-0.0018184597520339,0.0222703649342677,0.9997346322158168,0.0109702081998544,-0.0063058188995151,9.968077478078262,0.0102255408025175,0.0645206173852415,0.0594021904102382,-0.0067591593494075,1.591654710536559,1.1537363422641576,1167.4075651562596,1127.3650533787452,1118.8838958137048,1163.1091433124595,223.51783069407148,145.88483452287792,258.57470670508206,-137.5708802377904,160.78459578419483
13.2325,-1.727314446595128,0.2136080118198517,0.0643023044147051,0.0102345152783766,-0.0019349194022553,0.0192310848642616,0.0055925080525234,-0.0017907221406537,0.0223044919425307,0.999733805008266,0.0104144692591067,-0.0070146486252186,9.968014491440158,0.0101867160008679,0.0645218969252314,0.0597749736339466,-0.0067428232349609,1.591809951138797,1.153886600493922,1167.7051990170964,1127.6048494987283,1119.6495994859872,1163.1557004688304,21.155943075932218,63.704372117821485,321.5228231932727,127.55891310100915,160.78467958022028
13.235,-1.64809512087415,0.3514177349234198,-0.2917407014270098,0.0063561589709883,-0.0013098301177024,0.0190584320424392,0.0056023467809187,-0.0017524445124265,0.0223371799154753,0.999733095284312,0.0097271270614507,-0.0080376129698677,9.968081366798048,0.0101454074854302,0.0645258480724514,0.060154933943769,-0.0067269033290796,1.591966807723329,1.1540363837854883,1167.5133448716392,1127.6835752393342,1120.4915099296709,1163.7469378779647,-198.36067703555807,4.419096717673929,329.61492658532126,316.5939239431696,160.78484667356582
13.2375,-1.4655869911554429,0.446429822177102,-0.6096850171577272,0.0040241208528798,-8.794636876987817e-06,0.0172840102139891,0.0055972606307668,-0.0017056501871935,0.0223680120679857,0.9997325204632508,0.0089551264245422,-0.0094056238104688,9.968260043131968,0.0101035438693547,0.0645298726560312,0.0605440607824675,-0.0067113381801612,1.5921245844024963,1.1541857636445985,1166.7133956319185,1127.6269449823167,1121.297674118914,1164.7386700885463,-480.4337019850822,-50.8397427137345,321.12579004219225,448.06088200086646,160.78510513564154
13.24,-1.1897074248054544,0.4923556851420045,-0.8872081322114124,0.0018699968876456,0.0021443033181479,0.0134920481494258,0.0055803720116473,-0.0016574223179988,0.0223943051426463,0.999732112631957,0.0082426582957761,-0.0110487967113658,9.968529187116808,0.0100630818539885,0.0645314842771281,0.0609432157666344,-0.0066959103880833,1.5922830455217656,1.1543354237726284,1165.1111763617134,1127.4293765257655,1122.097138879882,1165.9872422879691,-672.6563111447805,-99.46301827160072,252.36084496373695,411.42353308749995,160.78550693479943
13.2425,-0.9376950022600672,0.4673651997049341,-1.0025010167996455,-3.35535475365299e-05,0.0042566191807081,0.00944352707522,0.00555874601585,-0.0016190244006729,0.0224135926195262,0.9997318704181716,0.0078136236261769,-0.012815377571462,9.968865689583923,0.0100262222396561,0.0645283015959728,0.0613521249142639,-0.0066803401272849,1.592442924289474,1.1544862216617824,1163.3501140761953,1127.1296298909588,1122.5594783437325,1166.7957877539836,-752.9792897874091,-160.42488814852953,133.71758448377207,225.4320347285204,160.78590719207065
13.245,-0.6747805745513586,0.3826813381723637,-0.9892337268102576,-0.0019270307839166,0.0062319540281224,0.0055927558397745,0.0055405092960728,-0.0015981396076244,0.0224261975649965,0.9997317301552088,0.0078161984994539,-0.0145256611321877,9.969247028040703,0.0099948071551259,0.0645178597919742,0.0617698318110539,-0.0066647960946722,1.592605127347568,1.154638306803372,1161.3462799127756,1126.6272520850227,1122.765726802301,1167.114402461612,-804.4979171970787,-241.5425312725424,38.425161940034194,27.724572196389303,160.78636317444796
13.2475,-0.4067075060048176,0.2652170504550763,-0.8841921883364097,-0.0034932400447294,0.0076886829139765,0.0025692797090973,0.0055285144199053,-0.0015957684491161,0.0224356548924429,0.9997315948625144,0.0082585755631419,-0.0160973019035002,9.969653911881437,0.009969994891445,0.0644971141402972,0.062195584631278,-0.0066488362640447,1.5927696032300007,1.154791602034251,1159.3276244902092,1125.9219172345959,1122.7516041534327,1166.9344106149656,-762.390904407236,-329.0108690297275,-53.78901871809991,-189.45871622926592,160.78685729953787
13.25,-0.1386508751617031,0.1409414064029614,-0.7033963052726212,-0.004440212535139,0.0083400954483108,0.0007096350261439,0.005525171659056,-0.0016081286758681,0.0224453268385123,0.999731381679639,0.0090492036344686,-0.0174506894507737,9.970070494198222,0.0099521125212275,0.0644634399419037,0.0626281976024338,-0.0066322219743556,1.5929365755642315,1.1549456247148275,1157.5343253907404,1124.9821977398744,1122.4967817087106,1166.167108880466,-679.0371728073283,-447.7107676008454,-152.9411616972843,-442.9286947155077,160.78738892821409
13.2525,0.1692650283804096,0.0337146284481093,-0.4499783539744975,-0.0046204915800745,0.0077965157078624,-0.0003866618692312,0.0055309279754332,-0.0016307818438472,0.0224530990618599,0.9997311425676634,0.0100785687673518,-0.0185423600973115,9.97048558772187,0.0099405754086445,0.0644149066680455,0.0630661630673043,-0.0066151886196611,1.593105773454502,1.155100566196683,1155.9324386261733,1123.683363396592,1121.9868983449464,1164.7197671413885,-463.49538222741126,-478.40459466903457,-206.210718909792,-584.1823128815118,160.78806088154644
13.255,0.4006395594809773,0.0121692416964837,-0.2419776837864822,-0.0039090380470183,0.0062679762183939,-0.0005973715925862,0.0055453971142325,-0.0016581307677189,0.0224561861563787,0.9997309521170455,0.0112106390012617,-0.0193442079974421,9.97089349198411,0.0099345444420655,0.0643506787878925,0.0635074848291658,-0.0065977725557103,1.5932758900471764,1.1552571217742993,1155.2168484796027,1122.590174766529,1121.4657281141615,1163.246197316058,-138.25579563410997,-397.96868590618175,-210.14131379858,-600.1469790041,160.78864350552928
13.2575,0.5882263759716648,0.0810797690813773,-0.0675839474414252,-0.0024390534892325,0.004508924383247,-0.0003333301645683,0.0055644610009649,-0.0016806422507669,0.0224540546429312,0.9997308611644324,0.012226981913952,-0.0199022172710403,9.971295423177864,0.0099330060885088,0.0642708323003466,0.0639501332382569,-0.0065804654896658,1.5934448022190153,1.1554162922391322,1155.2411596480026,1121.6935199670609,1120.9361917759531,1161.7190322463675,175.45134250002627,-296.4881268464204,-216.5926683939664,-637.5311043972847,160.78924425953943
13.26,0.7455305891434776,0.2546604219658546,0.0813135725235629,-9.02469462634395e-05,0.0034213216264786,0.0003254135957454,0.0055839446540269,-0.0016915048384405,0.0224495237306494,0.9997308408272736,0.0129618394712423,-0.0202683973891128,9.971698735328342,0.0099357903401569,0.0641767741835743,0.0643916146244668,-0.0065633184394523,1.593611050796134,1.1555788885219456,1156.0941051921027,1121.107734132297,1120.3827647721919,1160.058541794072,427.1770763224836,-99.18278673884099,-178.22630680522647,-553.9413581135293,160.789981584247
13.2625,0.8118759108809679,0.4423027155502088,0.1475697904838386,0.0022486042763756,0.0039441168154335,0.0010393375964482,0.0056009610616232,-0.001690276195054,0.0224426849363207,0.9997309053118826,0.0133757887758171,-0.0204773785580445,9.972116251449098,0.0099432548697853,0.0640712852373431,0.0648290268360724,-0.00654670392178,1.5937744154276463,1.155745092041384,1157.3770450296151,1121.1976060333664,1120.045060241927,1158.9493254557995,589.2845471246335,181.01897233643183,-97.2087671113816,-368.0167489838248,160.7906073905256
13.265,0.808180334472736,0.6221009471722296,0.1530443401587568,0.0048799260570565,0.0061263698574125,0.0017390401872892,0.0056142490768697,-0.0016800273049115,0.0224314525626861,0.9997311031439806,0.0134998103191928,-0.0205400792575003,9.972565756556401,0.0099559395098518,0.0639581937983232,0.0652594318906747,-0.0065307691478672,1.5939344703583045,1.1559146615023184,1159.0405279277263,1122.0128289939792,1119.896720936635,1158.2184580491528,691.0122976546983,447.33492739364726,-17.91535888246828,-225.3493373406848,160.79124296509355
13.2675,0.7514918611320576,0.7591512795854725,0.1125595977375036,0.0074620996449271,0.0093800022838686,0.0022309110768087,0.005626083906313,-0.0016642272884602,0.0224173578548455,0.9997313806999664,0.0133752755826978,-0.0204056622784497,9.973068789436809,0.009974805807874,0.0638421108740444,0.0656800287067791,-0.0065151959114402,1.5940920030597956,1.1560866469264943,1160.832106517888,1123.4342806703344,1119.9554834475148,1157.8225787690963,702.2945445308811,690.3044678534579,86.63820840644708,-81.09555803222769,160.79188549772968
13.27,0.6475402074810381,0.8200318836650776,0.0258352844569937,0.0093304994724212,0.0129169071419548,0.0024699485167385,0.0056364075300437,-0.0016454393493725,0.022402537868268,0.9997316854841476,0.0130261140692684,-0.0200785237546455,9.973650230476704,0.0100005599295019,0.0637273465029891,0.0660892108209403,-0.0064999579060473,1.5942478410983343,1.1562602167867455,1162.5520006503803,1125.464351333246,1120.329911978667,1157.8129802589915,687.9740517292082,974.369178374975,250.84890390208497,76.91157416678541,160.79253547240182
13.2725,0.4977631140191512,0.8055102922458188,-0.1175983920386958,0.0102754858665389,0.0162280323080191,0.002623022372868,0.0056466380570709,-0.001626363919059,0.0223891291134088,0.9997319571034884,0.0124823604608739,-0.0195428380905894,9.97433569552906,0.0100336376340684,0.0636181291041922,0.066486218241077,-0.0064851713137483,1.5944020785116573,1.1564349431399243,1164.2719767765348,1128.30612656221,1121.2097279670254,1158.2071366399302,542.1177946138022,1055.0630746112515,394.90726773536346,208.51817012150076,160.79332336846124
13.275,0.3707080354479403,0.7381778853819264,-0.2574293735004425,0.0102476313585365,0.0179091783939317,0.002514148677122,0.0056561800210597,-0.0016078311319077,0.022379852372665,0.9997321367720008,0.0117397308359875,-0.0188307721986292,9.975150233880676,0.0100739160284643,0.0635179207079389,0.0668716800876051,-0.0064706710789333,1.5945546733548492,1.1566103686640592,1165.2625896234497,1130.739666706303,1122.304448317344,1158.8555711095992,277.34375801716004,923.4427327818157,496.19306530526814,326.85795656895743,160.7939864519808
13.2775,0.2490830876482074,0.6398116068816321,-0.398780624339133,0.0100816739142775,0.0186830838482241,0.0017794505023874,0.0056633666282347,-0.001591562388005,0.0223739776466083,0.9997322477297396,0.0108160068851635,-0.0180037624379556,9.976115873913336,0.0101204947293153,0.0634294074077306,0.0672474362293201,-0.0064562039632304,1.5947061680175147,1.1567859277187835,1165.6586955666203,1132.923340226118,1123.6906932935512,1159.8414264227747,49.23235518844334,794.2137222598045,576.7263252105304,452.70582700111134,160.79465662647243
13.28,0.1249049140121207,0.5291011559688357,-0.5241366764187008,0.010329965907595,0.0191093548485542,0.0004539064154769,0.0056648501977566,-0.0015781880560891,0.022371254408806,0.9997323145655646,0.0097125607186459,-0.0171625283097815,9.977249910918193,0.0101718706417106,0.0633541681230212,0.0676165691724043,-0.0064419293398479,1.5948564262520963,1.1569615285090251,1165.508751399392,1134.7107353176027,1125.1880799433973,1161.1191002446053,-189.73089622879104,590.8579424114564,583.3239858544855,579.2640124129325,160.7953332759688
13.2825,-0.0191789463978069,0.4054017139416183,-0.6105057881496274,0.0115311306929012,0.0196454966222303,-0.0011269838658096,0.005657833496583,-0.0015649389454294,0.0223698851043278,0.9997323991766228,0.0083701170979853,-0.0163997194356667,9.978562950536935,0.0102253284305267,0.0632928766533635,0.0679830291376577,-0.0064272785262862,1.5950062316779816,1.1571365273823788,1164.710041085476,1135.877629938176,1126.607313222824,1162.7377464848398,-477.93370368636226,353.82712619323445,550.183548207788,773.8312092276548,160.79601871824588
13.285,-0.2264585927226938,0.2292235640440293,-0.6478977592175532,0.013368564471645,0.0205607819313028,-0.0028217579188554,0.0056452874180666,-0.0015513089476666,0.0223684909857915,0.9997325172558592,0.0067849403212731,-0.0156964669621889,9.980056261944512,0.0102779719698989,0.0632458774345048,0.0683506783141079,-0.0064113043574446,1.595157114048145,1.1573101317501466,1163.1190828809606,1136.4798709485683,1127.9389976844357,1164.9882562907428,-657.7274646927833,87.59304656998134,392.9576436617808,852.1615919624186,160.79685248072985
13.2875,-0.4149877101689208,0.04581341474714,-0.6089524016711146,0.0138917672596609,0.0214131582898944,-0.0042500785759696,0.0056329403951562,-0.0015395493679047,0.0223709745715595,0.999732544972278,0.0050182408975365,-0.0149807584071378,9.981721538105662,0.0103275132136854,0.0632127501575574,0.0687233694822266,-0.006393634327205,1.5953094113805617,1.157482041050826,1161.4214037620127,1136.3155951710255,1128.5721014411326,1166.998554444651,-707.3394853717476,-193.9784364735412,132.10915928719012,793.1052943758128,160.79755708458177
13.29,-0.5780708724672357,-0.1873943491756647,-0.4777479094579707,0.0121316543192868,0.022108095866118,-0.0061450980395757,0.0056223973817688,-0.0015295518641305,0.02237891706111,0.9997324368300577,0.0030906319279984,-0.0142603052391508,9.983542342231598,0.0103708076392556,0.0631917266571904,0.069105529775618,-0.0063740558656185,1.5954637506604483,1.1576520570169309,1159.5823854541013,1135.5099787662007,1128.5995434808715,1168.9537827626225,-778.5286445785152,-478.3217913889692,-126.18165168803743,801.5683521465346,160.79827196897375
13.2925,-0.6884581796703332,-0.5236354320207661,-0.1967583528719979,0.007632706786564,0.0222542313091913,-0.0088606437943891,0.0056114248582382,-0.0015205398237676,0.0223921555537541,0.999732209631646,0.001015742030338,-0.0136160785000922,9.98549446397414,0.0104044229571284,0.0631799687860998,0.0695016764419044,-0.0063526388717804,1.5956206404449715,1.157820830910398,1157.5287605391195,1133.9239862140803,1127.9411931826924,1171.0063962053844,-683.8945520331432,-656.7609115564152,-337.7856797900894,678.75396387294,160.79914130449484
13.295,-0.6886540661134125,-0.8366064639362985,0.1380393146481656,0.0034171995936337,0.0214387091084213,-0.0107501165181877,0.0055998385593877,-0.001516198136293,0.0224112942629071,0.9997318447552196,-0.00109525097677,-0.0130858682054041,9.987545715256104,0.0104259695085508,0.0631746580446427,0.069915189654757,-0.0063300218258989,1.5957805585835194,1.1579889978696518,1156.1629126939363,1132.2261742084193,1126.9106150819216,1172.3475525819863,-434.26089455669626,-711.452777787195,-474.14815217789845,447.3810934452084,160.7998746561827
13.2975,-0.6098673150622023,-1.1516677839154432,0.5470824072946913,0.0007033451881132,0.0194757335331279,-0.011182094141993,0.0055884654130972,-0.0015180386470527,0.0224375972764044,0.999731307608901,-0.0031676422818996,-0.0126810765404284,9.989658138856269,0.0104333992426151,0.0631732905212603,0.0703482646036198,-0.0063069016741321,1.595942596497628,1.1581575991316615,1155.3574560663367,1130.3667223251452,1125.570452421803,1173.24330167261,-211.92945108974848,-730.1088630552154,-552.4678303053452,288.00696710072816,160.80061604203993
13.3,-0.5025372119858897,-1.4364224839382078,0.9752061647463472,-0.0003053901687677,0.0164390277540624,-0.0101017648324838,0.0055770130652697,-0.001524443461358,0.0224718064131486,0.9997305874835593,-0.0051848948410452,-0.0124282533562415,9.991790463315395,0.0104248519327442,0.063173771986487,0.0708020269808024,-0.0062836410914095,1.5961046944706552,1.1583277339202591,1155.1032654384871,1128.5756298931426,1124.1482759303944,1173.7875874174904,34.868029869534446,-650.8076635170147,-546.343882540583,146.78888133078067,160.80136286835935
13.3025,-0.4118055272117537,-1.6421519277146055,1.359630216556796,0.000243251323159,0.0120532054273726,-0.0069433612281649,0.0055646743382004,-0.0015363456407894,0.0225094729615247,0.9997297886281376,-0.0070770727283652,-0.0123593358960043,9.993900046704528,0.0103989416787315,0.0631747390869222,0.0712763300825255,-0.0062597821971496,1.5962654358039448,1.1584998595590015,1155.5317962156844,1127.1126840075597,1122.8387330091,1173.977246079264,330.5246976304464,-515.1294752587206,-505.0358394313757,21.015746244215368,160.8021144694477
13.305,-0.366642964705432,-1.749961060210606,1.6819929686059318,0.001293483158848,0.0056127694699855,-0.00054556245828,0.0055518286867829,-0.0015493068654615,0.0225451017979208,0.9997290395330484,-0.0088800292464431,-0.0124741513844284,9.995945189124816,0.0103542156213454,0.0631756509886869,0.0717697788789682,-0.0062354047049093,1.5964237379367143,1.1586749604904003,1156.7558889266393,1125.9999825168495,1121.623096733238,1173.8926661487114,543.6011519647824,-276.80027194901635,-365.4574800360817,-72.63303915336793,160.80301948008096
13.3075,-0.3897625803052753,-1.703050315803717,1.7846192462160413,0.0014359514176072,-0.0002796797536453,0.0061405330169993,0.0055357125602522,-0.0015545369894783,0.0225783353225553,0.9997283755765124,-0.010718647076688,-0.0128274306888555,9.997888074265587,0.010290106918718,0.0631757567159198,0.0722804735970906,-0.0062115734959073,1.5965793057811988,1.1588542787541007,1158.2498019755087,1125.7286826478144,1121.0114456089193,1173.614080883497,659.5034252780684,32.754875157338,-153.59058378969493,-148.35130050553244,160.80377444818393
13.31,-0.4605906769404033,-1.5149505987037803,1.6908942224429395,0.0004945605295571,-0.0057136765757236,0.012491518965276,0.0055185421436307,-0.0015487874605687,0.0226104823283922,0.9997277562051828,-0.0126077360885908,-0.0133709231576383,9.99969492598587,0.0102079374071735,0.0631749279384809,0.0728051577233916,-0.0061892554726545,1.5967330434488665,1.1590374557625105,1160.05340605303,1126.1637568926362,1120.8551438142895,1173.1509096461837,821.0828313988984,327.6028547779076,26.05923436354324,-243.5059267855225,160.8045281068605
13.3125,-0.5707007910531503,-1.162328963054472,1.3737860173236158,-0.0014848017355493,-0.0105083024262453,0.0183530298895716,0.0055052319803559,-0.0015336319314563,0.0226429557541427,0.9997271168115924,-0.0144693446679957,-0.0139986994187123,10.001338187458332,0.0101105009583102,0.0631730578842109,0.0733399280606736,-0.0061686187083417,1.5968859783085327,1.159223343280105,1162.3552161325024,1127.3666969217036,1121.1417417807368,1172.3965512495697,837.8435967103388,515.5404459035824,168.48058229378407,-307.0406715657711,160.80542849785243
13.315,-0.6639039694546576,-0.8059886527710299,0.9792643684385912,-0.0035286071918373,-0.0127701884032512,0.0214978596373973,0.0054976949190054,-0.0015117126371206,0.0226763661648725,0.9997264273084432,-0.0162120557753279,-0.0146595744506324,10.002798927664035,0.010001194602497,0.0631690799314785,0.0738813301034034,-0.00614930264658,1.597039428046124,1.1594108964272325,1164.2426240365808,1128.7414591221536,1121.6975467257582,1171.615706288355,718.5883285061905,567.5518546513581,266.85894508064314,-336.715920080671,160.8061736664756
13.3175,-0.7439327383951067,-0.4414716089981983,0.5096298479346955,-0.005596475789765,-0.0133349544241916,0.0229110647111097,0.0054966605424232,-0.0014827464888875,0.022712252684829,0.999725648347462,-0.0178112502901524,-0.0153191916026247,10.004067299753803,0.0098834555762368,0.063161195226138,0.074426332568252,-0.0061314342545389,1.597194575719426,1.1595990133863827,1165.948157775034,1130.2044561949608,1122.4760365061404,1170.712971649166,631.5654625342099,554.9133129944536,333.9806775879812,-371.4413779693916,160.8069112890006
13.32,-0.8083470147637425,-0.1064034224449911,0.022579084749093,-0.00733942904573,-0.0127518377740592,0.0231563522564573,0.0055008891167051,-0.0014492585451789,0.022749315898388,0.9997248117553628,-0.0191960270221881,-0.0159788500746178,10.00514292120739,0.0097609568302612,0.0631469771307071,0.0749723011887147,-0.0061155267717854,1.5973518910701558,1.1597873853005511,1167.4004513492523,1131.5160256871263,1123.3674501136984,1169.7584993985079,495.23058327718746,445.4773587437989,370.5083536848916,-376.5679414441205,160.80764100131768
13.3225,-0.8501374751641749,0.1660383060578086,-0.4371644637549212,-0.0087045648140373,-0.0116159583127457,0.0223783728393319,0.005509019990103,-0.0014114234330398,0.0227870557644355,0.9997239367058391,-0.0203518004413223,-0.01663684477962,10.006034556167078,0.0096371024496937,0.0631238855439916,0.075516728287717,-0.0061011870876879,1.5975113111458672,1.1599769494885614,1168.4243106914191,1132.4318429886791,1124.3285782745645,1168.8301319419459,320.52478105897075,280.5463526114197,427.26414118831286,-374.2530553198646,160.808359154903
13.325,-0.8611203178190008,0.4081040720727371,-0.9014757719288696,-0.0103339836087865,-0.010644524450573,0.0203879876492963,0.005517683244404,-0.0013657023131636,0.0228241752334936,0.9997230792162528,-0.0213486855818718,-0.0173266352241791,10.006760037780582,0.0095143985266738,0.0630893595865219,0.0760574045227722,-0.0060880929165679,1.5976726981638578,1.1601686329064647,1169.0030752545476,1132.9187574501836,1125.5037708196403,1167.8872341219083,85.42308095951313,72.00529791160773,428.81119180299373,-296.0434798800171,160.80920493612047
13.3275,-0.8184509100593284,0.5380373637986424,-1.1767249714751875,-0.012143578708242,-0.0099812097634449,0.0176882560564846,0.0055206382703476,-0.0013104437490383,0.0228585144185547,0.9997223300634102,-0.0222295573565726,-0.0181379439563205,10.007345624858386,0.009395128216096,0.0630409903799164,0.0765924730291688,-0.0060758041582058,1.5978355963316508,1.160363112945067,1168.8514260962168,1132.7918694782375,1126.4726342335798,1167.3499145425455,-201.93553019489096,-149.97095061856527,379.6006565679664,-143.45947234681387,160.80989446728552
13.33,-0.6912975145062038,0.5890710427831459,-1.2919792232939724,-0.0148599857028875,-0.0085818017087832,0.0136660126862605,0.0055177980030086,-0.001249559795887,0.0228885665448448,0.9997217230036975,-0.0229316028761032,-0.0190393932611968,10.007823318757595,0.0092820521206266,0.0629781388696076,0.0771193903655824,-0.0060640279002147,1.5979988056650756,1.1605604449903233,1167.9933976035732,1132.1689026970907,1127.4017741024795,1167.1699367601743,-452.8297687621935,-315.67920544786745,360.0357779176454,-6.322898850068106,160.81056577186607
13.3325,-0.4747291715257979,0.5682699408573563,-1.2490383788162716,-0.0180896691065001,-0.0062922014871621,0.0086089925230799,0.0055130917975046,-0.001187754199857,0.022916551995316,0.99972118396155,-0.0233816403134139,-0.0199207084134324,10.008229887281175,0.0091780165521445,0.0629017515154402,0.0776355006410589,-0.0060526504586575,1.598160452441826,1.1607605439733688,1166.5872772524065,1131.2134734509984,1128.2728131231677,1167.3183000482952,-663.760448085064,-440.7568426873461,326.4724391305152,131.5944247731544,160.811220173207
13.335,-0.147853758549445,0.4602410532494182,-1.007995738044232,-0.020992242195541,-0.0036645943283492,0.0031318709910496,0.0055139074433885,-0.0011359914106758,0.0229420722811622,0.9997206688028784,-0.0233862153233725,-0.020608271589265,10.008605242622052,0.0090859924547785,0.0628143371524068,0.0781382513033384,-0.006040952010415,1.5983202235058622,1.1609627054415004,1164.6745953631475,1129.965118483654,1129.0341362981324,1167.82790888404,-894.3977182577747,-588.905773083842,297.5489121411091,279.71895451164704,160.81185199282154
13.3375,0.33506851104555,0.2523018477378622,-0.5284222747128339,-0.0227112908015403,-0.0013376620563143,-0.001855413678968,0.0055244808855601,-0.0011008399168293,0.0229672099661508,0.9997200952155572,-0.0228462819012777,-0.0209940402904017,10.008991557257607,0.0090080613898856,0.0627186811428292,0.0786263613964734,-0.0060286244105197,1.5984783008966843,1.1611659787877544,1162.115288661117,1128.2689445855788,1129.7605576838735,1168.7168948208537,-925.2794386558,-633.1623446394938,226.114365154262,342.18584615284715,160.8125811817621
13.34,0.7585899393728343,0.0478943268722787,-0.0348666847113762,-0.0217344400530202,-0.0006563975947618,-0.0030997252225793,0.0055445044824031,-0.0010849664560467,0.0229898500788826,0.9997195062943361,-0.0217470472503234,-0.021065154476929,10.00943127607644,0.0089447227759705,0.0626174913235993,0.0791000339171961,-0.0060152969660948,1.5986350913474103,1.1613695237214527,1160.0481981698695,1126.799306760457,1130.1647081239037,1169.538838114804,-745.7867193979581,-570.7799674780306,110.31077520199781,307.7954943980759,160.8131625346876
13.3425,1.1225368051167972,-0.1365746920345684,0.4552397384417232,-0.0180749464119778,-0.0016516158155112,-0.0009217809011174,0.0055732384030452,-0.0010885122557488,0.0230114584823248,0.9997188696245628,-0.0201267151352722,-0.0208231832466838,10.009964214193388,0.0088962169541052,0.0625136866718472,0.0795603413652455,-0.0060012162362769,1.598790752771998,1.1615732784403596,1158.3863550641263,1125.415044748188,1130.3121115598835,1170.2558722928443,-575.0334409995968,-555.4489604668147,-2.6142378163054225,257.096043655434,160.81371412698437
13.345,1.407504295806965,-0.280691447230553,0.9344220199740222,-0.0118158659760228,-0.0044085081299347,0.0040750636500087,0.0056110858446193,-0.0011110551407078,0.0230359582455753,0.9997180917187882,-0.0180352529681101,-0.0202542237483837,10.010625201916572,0.0088628332433685,0.0624105056047123,0.0800088557623263,-0.0059868468493052,1.5989454412078115,1.1617768256144159,1157.173030964871,1124.0220619581223,1130.151636934822,1170.8243183330815,-286.142678895169,-444.9563569281938,-118.07791467747468,146.55782091588847,160.81433968738412
13.3475,1.4833265568444087,-0.316088487562916,1.1959477501072997,-0.0061899492932984,-0.0071565115652409,0.0089933977190094,0.0056519470396893,-0.0011517609128135,0.023061314676973,0.9997172510783792,-0.0155341481344582,-0.0194823636627804,10.011443502370785,0.0088439459578947,0.0623102968034705,0.0804484327008004,-0.0059731353403025,1.5990988313873844,1.1619807964950857,1156.9556416696507,1123.1902629635476,1129.7217219864963,1170.9886613974236,88.0558644025034,-248.19336987061823,-232.0830775945531,0.2035742555108704,160.8148302767034
13.35,1.3863539572700672,-0.271982352026755,1.300142309800382,-0.0012899201843203,-0.0090554346509734,0.0135901315746435,0.0056881489840272,-0.0012084642654407,0.0230853263123328,0.9997164415097148,-0.0127110267852914,-0.0186702917532289,10.012440345204803,0.0088385844063578,0.0622150461075606,0.0808824648297688,-0.0059603323553413,1.599250297099234,1.1621863219458206,1157.6133102868835,1122.7810951087697,1128.9912215468496,1170.825336204359,397.69415947778873,-90.19621267310367,-336.18006598480156,-112.38730024891144,160.81528972628675
13.3525,1.1659364214684762,-0.1895034856070877,1.2891910604399743,0.0025094457359015,-0.0097201789434525,0.0174376154220314,0.0057156489081304,-0.0012764957135981,0.0231062816937756,0.999715729337744,-0.0096996168736622,-0.0179139539507215,10.013626697071825,0.0088452321062844,0.0621270117084145,0.0813142313347736,-0.0059480307427737,1.5993998844548882,1.1623938323285152,1158.9441124670402,1122.739281900182,1128.040821656572,1170.4267248961787,662.7651948005552,65.0086893083779,-419.7288960770746,-201.26399891556997,160.81572482692107
13.355,0.8372711511359292,-0.1039114199979931,1.175773048495245,0.004777353940246,-0.0089319893541582,0.0202082797567337,0.0057316507249127,-0.0013492911259606,0.0231248447838484,0.9997151224975817,-0.0066675340500466,-0.0172895094408075,10.01500264593929,0.0088620326759939,0.0620480820739907,0.0817472833824194,-0.0059358859350505,1.5995482168053667,1.162603237564546,1160.9271362608868,1123.1061385553116,1126.892577066464,1169.819016209781,964.8705978653752,235.6092269333672,-527.5414433416839,-291.02809040197246,160.8161334667899
13.3575,0.3748123813749268,-0.041223905871553,0.972188757469862,0.0059927474345276,-0.0067796768403249,0.0224333790707217,0.0057363925367015,-0.0014221320555703,0.0231431021438924,0.99971457724611,-0.0037397193294536,-0.016817891256586,10.01655627436662,0.0088872276598213,0.0619798794380036,0.082185285705212,-0.005923526698198,1.5996957834666772,1.1628134456739179,1163.768465456366,1123.9173280348487,1125.403114439864,1168.9715844441691,1069.0186911532544,338.68428437292465,-545.5904898737293,-309.423103648776,160.81659841153123
13.36,-0.0298290666239037,-0.0316716565477173,0.7767730706456609,0.0060911719539627,-0.0050027611879554,0.0235256196839784,0.0057314174570279,-0.0014893939188665,0.0231628961024977,0.9997140507121028,-0.0010536829296311,-0.0164964503835015,10.018263758495772,0.008918496394753,0.0619234001044507,0.0826323020558787,-0.0059103574780887,1.5998430861765824,1.163023118885584,1166.272229716652,1124.799559977176,1124.1646246170956,1168.2719006915374,968.1813948234627,367.78094048125854,-471.3366716547798,-253.0499982398001,160.81696946740468
13.3625,-0.4169078554753485,-0.0446345738180903,0.575678028557081,0.0055315256206538,-0.004360700332015,0.0242054757290748,0.0057194242812581,-0.0015450143492035,0.0231862550208064,0.9997134911063648,0.0012503973564116,-0.016300290926796,10.020089651524595,0.0089531536320582,0.0618789281051132,0.0830926630927636,-0.0058960731606707,1.5999906011954212,1.1632315443637156,1168.609372430484,1125.7562327372552,1123.0464310815898,1167.70633445297,923.6823621958968,406.75864200437,-436.2490795510212,-192.747800940121,160.81733013900896
13.365,-0.821285038938822,-0.0332215222517997,0.3311608299960397,0.0040215410899625,-0.0053635833461531,0.0251162674173934,0.0057013224997476,-0.0015815612121938,0.0232119924678547,0.9997129337001088,0.0030097487764755,-0.0162388569519613,10.021988340989516,0.008987698530924,0.0618456262652639,0.0835710367308076,-0.0058805133539797,1.6001392180743712,1.1634377528927236,1170.890641527632,1126.833353187198,1121.9833792193403,1167.3081616868367,710.4357460111308,364.92612634790913,-322.62139236947456,-85.921357176693,160.81775845520434
13.3675,-1.0771642398159567,0.0374113619342897,0.1180967141039584,0.0015996977076953,-0.0074732449425839,0.0261359837561318,0.0056743153924038,-0.0015970602967946,0.0232378681059976,0.9997124499279342,0.0041751837642053,-0.0163957738516015,10.023905554098093,0.0090193978080509,0.0618212500359198,0.0840721083981489,-0.005863371673456,1.6002895589498936,1.163641005434485,1172.1615511605391,1127.5808633689944,1121.4333241197428,1167.2767276670868,349.51248560481866,255.8878858173612,-127.55586237397264,58.30722206282187,160.81811638087288
13.37,-1.2111348666620818,0.1931176820220892,-0.1114733685284964,-0.0021336807966192,-0.0099049335880751,0.0270532080053512,0.0056362859265118,-0.0015947138924324,0.0232647827822537,0.999712026057412,0.0048077611597358,-0.0168394089769751,10.025779678952944,0.0090470061301255,0.0618030032440699,0.0845994672521044,-0.0058450586152495,1.6004416871596499,1.1638421464357602,1172.6382039556563,1128.112792616285,1121.3455999074704,1167.5996977971508,55.315118324725056,176.76413497149008,53.42316766949882,187.13652696466653,160.81848003166118
13.3725,-1.2224282958287163,0.4050688522697421,-0.3513250254621761,-0.0065608242268041,-0.0112605387442436,0.0273893783494641,0.0055881123653387,-0.0015792322417375,0.0232922565969368,0.9997116620544212,0.0050057580788649,-0.0175733543154277,10.027544326952224,0.0090698152928484,0.0617882823645135,0.0851548195259409,-0.0058266987627372,1.6005950908989175,1.1640435254056205,1172.4381267521628,1128.464684043852,1121.7004399580903,1168.2124103019103,-225.69243879452128,106.66311318197889,250.44094859027132,303.3054244221297,160.81885121495247
13.375,-1.0786002108426083,0.6311899524302693,-0.5856700307003416,-0.0110136009147636,-0.0100268455022351,0.026674577203971,0.0055310850798504,-0.001555217297957,0.0233179285383526,0.9997114012045328,0.004870518519876,-0.0185864809899658,10.029132165817584,0.0090873980579033,0.0617744965237342,0.0857380029735381,-0.0058097005357124,1.600749249548822,1.164247793159284,1171.509741761684,1128.646108182195,1122.5978046504215,1169.1162249192612,-531.2677976876478,59.86196693903648,501.3630957728853,438.205735666448,160.81923397828552
13.3775,-0.7492109738501816,0.8315392446246063,-0.8249371913304375,-0.0151133495266548,-0.0058557183312414,0.0245908510719522,0.005468365672382,-0.0015325631280322,0.0233370024848429,0.9997113256281568,0.0046147611375472,-0.0198256580115964,10.03047783398492,0.0091003970346975,0.0617594822649909,0.0863467386153467,-0.0057939869840261,1.6009039307219468,1.1644563178349918,1169.781787763725,1128.7639938785471,1124.2072554369543,1170.403438980242,-692.0302499355612,41.03547202952809,650.5345938594368,481.87383302940106,160.81970879547183
13.38,-0.3812065515294271,0.8877749493971892,-0.9605032952469276,-0.0170701800082641,-0.0013580839903868,0.022033778200574,0.0054075491544844,-0.0015233191181035,0.0233449850568563,0.9997114814959343,0.0045003938033396,-0.0211428227015219,10.031521117147276,0.0091101739927247,0.061742043891573,0.0869766605938699,-0.0057793073556905,1.601058790549636,1.1646691892330516,1168.0495905120058,1128.8512855423423,1125.8504776197192,1171.5255940844083,-697.7705287730079,43.6553837120232,674.2594917596163,432.1458188575668,160.8201181335666
13.3825,0.024755976099727,0.8033009246994093,-0.999393372245954,-0.0174516223019223,0.0027936247892427,0.0188392912848278,0.005354476571719,-0.0015302731885806,0.0233434463300132,0.9997117927169504,0.0046061990246251,-0.02241410110716,10.032211795572692,0.0091173282431877,0.0617209218484909,0.0876226729141879,-0.0057650697606478,1.6012140656397045,1.164885989583196,1166.2929351198595,1128.9822707971073,1127.5785528957529,1172.5641680745302,-668.997757341,60.65959409508038,667.4346922388813,386.36166105196435,160.82054162439948
13.385,0.4141364778904503,0.6122746282407773,-0.943067203196138,-0.0163862064969087,0.0058840985680328,0.0152635152130568,0.0053126959844865,-0.0015513650573828,0.0233345552966929,0.9997121898614793,0.0049148983113678,-0.0235531458279658,10.032512069048154,0.0091216390881063,0.0616948444413421,0.0882793448796585,-0.0057506211691193,1.6013704858189515,1.165106120195378,1164.7046017253015,1129.154583512818,1129.1876510809127,1173.457402389668,-561.6289969107161,71.88154754170468,572.4704597129872,311.804934054086,160.8209763915968
13.3875,0.7301934044003296,0.3318346722671171,-0.7698023610209325,-0.013640679675184,0.0071386908960218,0.0115916301137999,0.0052810816894328,-0.0015805617654837,0.0233199982010032,0.9997126473619032,0.0053288085118915,-0.0245601683532428,10.032398908357717,0.0091220301737526,0.0616622319835194,0.0889415121744574,-0.0057356200392229,1.6015276620128247,1.165329379759789,1163.4847901353055,1129.3416785348159,1130.4409051943182,1174.1231927448007,-430.897633024575,70.87048285210386,429.27591058812703,235.28892802729348,160.82142404330463
13.39,0.9759307067565856,-0.0443227634860029,-0.4527277663231448,-0.009184857799116,0.0066335527192246,0.0081930852781427,0.0052573725481057,-0.0016080137465122,0.0233031826044893,0.999713113128506,0.005674104699605,-0.0254521825566153,10.031864812855847,0.0091169123009566,0.0616218892780128,0.0896040926975868,-0.0057199169955348,1.6016840857642225,1.1655557922998843,1162.5501135601783,1129.5089359270785,1131.334030633854,1174.6338470298047,-255.7254962681836,40.79428593227833,213.62834894980247,139.38145375871545,160.82197509588076
13.3925,1.055338075863278,-0.3490008511837397,-0.137997967966817,-0.0053110414632442,0.0051793903468294,0.0070798959612507,0.0052412528540823,-0.0016266357094164,0.023287276236221,0.9997135277745036,0.0058335168132823,-0.0262054384715972,10.03091761694397,0.0091052140532866,0.0615735648121209,0.0902618294934594,-0.005703707961294,1.6018387672653296,1.165784530981702,1162.2061626539648,1129.5456499644772,1131.509046939067,1174.8201000135944,-63.219927361809674,-15.477996251641695,-37.46839060587099,26.95455685639526,160.82244504146922
13.395,1.014189323516649,-0.6101785224126332,0.1662699065256429,-0.0019852788052258,0.0034057368554355,0.0079304156927426,0.0052317816226805,-0.0016347621898528,0.0232743630725321,0.9997138530897154,0.0057976642891857,-0.026809465108914,10.029580746170284,0.0090868571183691,0.0615173391256896,0.0909097353280277,-0.005687228680868,1.6019917730600215,1.1660152750003256,1162.2340139233693,1129.4315459458203,1131.1466886808244,1174.7686198140866,71.82427571332269,-86.79466178517494,-239.88166620620973,-75.64812521221666,160.822925055263
13.3975,0.8609082978391002,-0.8506723090399115,0.4508899982947229,0.0010245733960102,0.0012358333048753,0.0104565418821526,0.0052334226703594,-0.0016346937579834,0.0232668377060309,0.9997140089863116,0.0056380415576903,-0.0271467592290569,10.027891662434476,0.0090627740388108,0.0614544897055066,0.0915424669582448,-0.0056708662376213,1.6021446389490455,1.1662480509058089,1162.5652840325315,1129.1116766555513,1130.3096386080358,1174.4418593875332,153.7115724958981,-142.66505472903688,-326.19685862209184,-163.9796219354792,160.8235113463415
13.4,0.6802271311045791,-0.9783333774123516,0.5864585628570004,0.0025114411407787,-0.0007450345611832,0.0131518649955385,0.0052477911401898,-0.0016281019121876,0.0232679058550331,0.9997139124237056,0.005410294425779,-0.0271574150618231,10.025902197823344,0.0090341219181591,0.0613859104028057,0.0921554859870085,-0.0056551669448234,1.6022985142454695,1.1664829718290384,1163.0025717858489,1128.7182206721748,1129.5157043877139,1173.948721704409,194.87362481472033,-170.2617637521937,-273.3241118121076,-244.1063866456292,160.82400740789092
13.4025,0.4833665910591254,-1.01474203638028,0.5995014063460653,0.0032169739165643,-0.0032547943140184,0.0158094694972715,0.0052694832147553,-0.0016218090984307,0.0232755643730325,0.999713627575436,0.0052671298729103,-0.0269263438489508,10.02367703191846,0.009002557780987,0.0613114721323067,0.0927455736831226,-0.0056402513108356,1.6024528934477682,1.1667209230732543,1163.5396521566047,1128.2603678367905,1128.9430180489755,1173.2213274543053,226.74163198263247,-178.89617925231437,-149.1222185934697,-329.547833182772,160.82450985749085
13.405,0.295398542964008,-0.9628056771160473,0.5155472728026141,0.00362473109919,-0.006392747982662,0.0180237171294556,0.0052915094161811,-0.0016239384501705,0.023291024867673,0.9997131507325072,0.0053834270068542,-0.0265737206509275,10.021290701426736,0.0089705191178913,0.0612309943578543,0.0933103732514082,-0.0056251630032222,1.6026072540459753,1.166961463596988,1164.1362799457622,1127.8237397759133,1128.7700932947464,1172.3009825384947,250.4891041194305,-147.41354184800423,60.64326672934801,-410.2214621764956,160.82501649799983
13.4075,0.1356416125803951,-0.795819385501558,0.3362744936959716,0.0036102995062362,-0.0100895773580775,0.0194215860005124,0.0053084700133715,-0.0016360883555424,0.0233198594572298,0.9997123778477696,0.0058004448834265,-0.0261886299364697,10.018824741344352,0.008939877612059,0.0611449266721037,0.0938483021637666,-0.0056095418499505,1.6027612017796944,1.167203834667972,1164.7920976772023,1127.5233001275503,1129.2462343826223,1171.1702201434225,296.75373972214845,-71.41315983032257,367.19689572321863,-532.5407765326568,160.82552676123183
13.41,-0.0113551613822658,-0.4757064557920189,0.0505367711712149,0.0032666877747847,-0.014020411623495,0.0200986846259262,0.0053213736062856,-0.0016555353542692,0.0233602026502373,0.9997113479061036,0.0064712859836883,-0.0257340761869004,10.016363620539392,0.0089109504079105,0.0610554680421354,0.0943580580099088,-0.0055942203170304,1.602914061270196,1.1674479876607564,1165.6200486443727,1127.4666739767615,1130.606077773362,1169.6382786558322,301.48596005375646,47.127922338459314,607.8618809951722,-575.4709898518065,160.82614129624568
13.4125,-0.0946353839489553,-0.142857568622785,-0.2141923362481602,0.0031408861498369,-0.0158486909399398,0.0198636823886292,0.0053289597675613,-0.0016809416516558,0.0234046469949731,0.999710239650231,0.0073710290207511,-0.025224125939351,10.013992439476732,0.0088837805029164,0.060964809685145,0.0948396878792951,-0.0055797772957113,1.6030650638706139,1.167694435123767,1166.2995274774707,1127.7589397392424,1132.2855437875976,1168.292865194164,251.72238540699868,196.2404327811476,730.6446854282278,-530.4013831935289,160.8266537329968
13.415,-0.1385820066801745,0.1946955969735726,-0.4681005777902511,0.0032713515538152,-0.015568456873183,0.0188447451532789,0.0053282418066984,-0.0017148769280495,0.023443409730023,0.999709291358232,0.0085474078912507,-0.0247145037967039,10.011793201994823,0.0088589436027342,0.0608749767554936,0.0952946131790337,-0.0055660297536042,1.6032138984141209,1.1679438364174883,1166.8786605714079,1128.4478761406676,1134.2593012005038,1166.986271739864,197.7658718619896,336.2472000118416,784.395308053231,-499.3385105065629,160.82716457955206
13.4175,-0.1485403990631747,0.481980697260006,-0.6858429502850676,0.0033034300441374,-0.013566588119165,0.0172341191436515,0.0053164711910182,-0.0017573130362066,0.023471825119045,0.999708625652571,0.0099918387043182,-0.0242603771859875,10.009841444108345,0.0088371210518755,0.0607878403144818,0.0957256916023472,-0.0055526786249743,1.6033607858651364,1.1681952954336394,1167.2883568367808,1129.440175739302,1136.2075203278644,1165.7961726416308,102.35396677773896,450.56249997787614,706.7370495466135,-429.468570209332,160.82767258670057
13.42,-0.109865411769271,0.6540446217023874,-0.830394599727294,0.002809192296556,-0.0100686414427495,0.0149815939571125,0.0052944845110063,-0.0018051757124369,0.0234884865516152,0.9997082766159784,0.0116321159877887,-0.0238488213468576,10.00820251277541,0.008818697384936,0.0607055301442997,0.0961370012122437,-0.0055400064659919,1.6035061505203452,1.1684470022604896,1167.3904304052965,1130.7006886405563,1137.7929864482362,1164.838928888818,-44.90881468796926,580.964287383974,547.719707498636,-349.12222208547644,160.8281752287539
13.4225,0.0039831609886013,0.6911161535237161,-0.8879241435293812,0.0017665143299471,-0.0053918099619575,0.0114389644495401,0.0052678238649859,-0.0018539580579421,0.0234928001020458,0.9997082379248416,0.0133654006628566,-0.0233765786822009,10.006928503728012,0.0088036883750718,0.0606304769532536,0.0965336791197633,-0.0055275980267014,1.6036508294494596,1.168696584478247,1167.063812763341,1132.344997176221,1138.9461188653568,1164.0505615312038,-198.2805384097591,596.4045617282841,275.03970211019146,-222.50869755536016,160.82876952174504
13.425,0.156669022794852,0.5858901139354061,-0.8256150453252515,0.0008282989020407,-0.0022002698372527,0.0080749523955571,0.0052418309780594,-0.0018986813427773,0.0234882125962076,0.9997084105605152,0.0150757167740737,-0.0227480707954541,10.00605688360364,0.0087922352341823,0.0605642898057366,0.0969222010739919,-0.0055145586957533,1.6037961781586212,1.168942214992602,1166.3990277132475,1133.6827114491985,1139.1681849587872,1163.7263854010407,-337.21303968485887,497.3274842452288,-57.22154926055752,-63.43983412069892,160.82925515441414
13.4275,0.3554814175463041,0.3787010161065876,-0.6510133526912683,0.0001548305538852,-0.000625008376591,0.005207442496723,0.0052232414570102,-0.0019371614854682,0.023475605103336,0.9997087430410692,0.0167000809898576,-0.0218438976046678,10.005608654189807,0.0087844795719758,0.0605081792852628,0.0973095500596572,-0.0055012164700263,1.6039427357333647,1.1691845228537483,1165.3777475649165,1134.8316345974479,1138.660011119054,1163.7333623606003,-502.3238468686576,436.5764596001968,-348.2106634272224,64.00789825990068,160.82972765955455
13.43,0.605377019153676,0.0799592914026538,-0.3397648553269272,0.0005934341879016,-0.0005087899163215,0.0029416799606849,0.0052134078418114,-0.0019656079667242,0.0234556906110702,0.9997092185136434,0.0181378993176684,-0.0206535195973323,10.00558949826194,0.0087800369001204,0.0604617633705332,0.0977034131613947,-0.00548812573307,1.604090591195624,1.1694240892418999,1163.8874084789047,1135.865593747199,1137.4271316416516,1164.0464248923404,-560.8462683852428,313.7519179004776,-511.1173517123117,149.719529945309,160.83027513883732
13.4325,0.777265637222844,-0.1616186492788249,-0.0288607035089386,0.0027901889452768,-0.0014909984130048,0.0020903193845767,0.0052122026195615,-0.0019787736640101,0.0234342301517693,0.999709711837792,0.0192567314526086,-0.0191966960702835,10.00598985136777,0.008778685827413,0.0604239253732064,0.0981110649590486,-0.0054749163190155,1.6042396406458943,1.1696607369860403,1162.5735162229898,1136.4003941869505,1136.1044243604922,1164.4819600103267,-501.94406504234735,149.22304774133804,-537.2133818891213,192.188634979645,160.83071146344602
13.435,0.8548332505864333,-0.3488802121396414,0.2870702964379964,0.0068500036188941,-0.0030822611272956,0.0025201300497547,0.0052183182629142,-0.0019728854949773,0.0234145959965177,0.9997101576525144,0.0199511692643075,-0.0175179504999731,10.006786306466447,0.0087800633443794,0.0603931887590253,0.0985386854605478,-0.005460898970362,1.6043899332060358,1.1698946338879828,1161.3776881536924,1136.6117089859058,1134.7410647322056,1165.0073680672388,-432.2098735447476,39.48851265568796,-520.68711397293,214.8140801200016,160.83112223637423
13.4375,0.827704740252169,-0.4682121158345398,0.5688404438430725,0.0114040632570922,-0.0049818143011816,0.0040977775866426,0.0052296229738683,-0.0019500985114184,0.0233974306636604,0.9997105472067104,0.0202327024575866,-0.015681113712335,10.007943689209512,0.0087845843220616,0.060367966533824,0.0989906684443329,-0.0054464503451857,1.6045414551472597,1.1701272589830696,1160.4124668552663,1136.597836750229,1133.500988790628,1165.5560304109267,-305.89869239822013,-48.10940244034148,-443.67258093934385,217.89612959487167,160.8315077576943
13.44,0.6775190288572566,-0.4926481407306234,0.7683514137504571,0.0148903889176843,-0.0070618156732919,0.0068372376353776,0.0052438441195397,-0.0019158765271613,0.0233827335375595,0.9997108820852604,0.0201784724312586,-0.0137543357253489,10.009418326899857,0.0087932809383343,0.0603468638526799,0.0994691257093516,-0.005432358480768,1.6046939177757904,1.1703613082596311,1159.8481946917016,1136.371161973704,1132.5227018275093,1166.096848715213,-138.43628282477422,-137.4026644082063,-359.5613425192716,232.633746573456,160.831857412958
13.4425,0.3998992708909199,-0.4136586401958191,0.8771577728943171,0.0166656637624314,-0.0090181911887255,0.0108500670838573,0.0052561557696672,-0.0018793916600045,0.0233686543977644,0.999711213953336,0.0199387961781684,-0.0118585121140753,10.011162014160083,0.0088077523245615,0.0603283854540198,0.0999740179167112,-0.0054191741282714,1.6048467469724927,1.1705991710863994,1159.7202854411423,1135.9108234281875,1131.7031820780314,1166.719199143794,45.19750815742758,-194.07516958632792,-243.59484196202916,224.4026787533234,160.83222802480054
13.445,0.1333447529297048,-0.2689434133263564,0.8507407063161457,0.0163460437000615,-0.0099498680412773,0.014222281307983,0.0052623285674801,-0.0018496093419504,0.023353820949953,0.9997115814695368,0.0196612722312595,-0.0101026856450714,10.013125317572163,0.0088296035319407,0.0603116423306459,0.1005030432813097,-0.0054067660568097,1.6049989111668557,1.1708429723495757,1160.0741822324887,1135.4007861257724,1131.3047276176987,1167.2188621089797,225.95338886276244,-222.18594591763448,-108.31209186173844,199.00017612130208,160.83249065107609
13.4475,-0.1221689411315555,-0.0611325867000105,0.7154204556431573,0.0150786160865427,-0.0105559385866508,0.0168476762190601,0.0052617205735089,-0.0018305945026439,0.023340325655031,0.9997119322341476,0.0193992837317607,-0.0085222792935592,10.015260534036468,0.008859740513184,0.0602969281970735,0.1010518866371169,-0.0053948685026935,1.6051499880582516,1.1710933513931998,1160.850052385456,1134.7998936985998,1131.1616216187228,1167.7142000244005,416.00020166550024,-271.5471437455138,-14.602124532391363,220.80205316516367,160.83269950673989
13.45,-0.3848242041291638,0.2359274569877455,0.4635365647906432,0.0133992159623298,-0.0107016090858183,0.018684883892789,0.0052550204558651,-0.0018232590879588,0.0233309913826216,0.9997121960405168,0.0191464792946024,-0.0071250261019767,10.017524459020324,0.0088982482746141,0.0602852120046381,0.1016152081736754,-0.005383516185317,1.6052996039967256,1.1713499289911655,1162.1541832408168,1134.0430504070443,1131.231716995037,1168.3228723748057,519.2942696471262,-270.8797067511145,58.76092035836327,226.7675082621381,160.8328821818979
13.4525,-0.5589793604388488,0.5008044247809166,0.2116418583798685,0.0120775476761455,-0.0097966239326947,0.0191445604344939,0.0052475675029056,-0.0018296391708405,0.0233283613341971,0.9997122823802392,0.0189246998958379,-0.0058263608238545,10.019879064880964,0.0089450482967583,0.0602786465901026,0.1021869471550555,-0.0053720225697271,1.605447699298109,1.1716119622141872,1163.446523733692,1133.445495164844,1131.4554262205147,1168.8480375657111,530.9898732483963,-218.77549988043745,116.89817208705388,212.3716123084218,160.83297418429865
13.455,-0.6855008279616476,0.7546221558130431,-0.0475484783535272,0.0107821408723989,-0.0077473420172108,0.0187350965487566,0.0052430965234651,-0.0018477612594954,0.0233347281111948,0.9997121222711484,0.01867902358154,-0.0045720660102344,10.022294051964108,0.0089987755637965,0.0602791281135373,0.102761830018422,-0.0053597797546258,1.605594772241581,1.1718775904125536,1164.8091326070582,1132.9491729076426,1131.816207855472,1169.3847304363476,533.520845978516,-177.11883192709024,164.47296522686517,213.6564681976749,160.8330001134572
13.4575,-0.771882678630255,0.9809355809892276,-0.2917526126934795,0.0093029200728519,-0.0052167400045257,0.0178931344932375,0.0052416661853693,-0.001872056492993,0.0233472325681401,0.9997117917207264,0.0182852445246897,-0.0033793949701632,10.024747323554424,0.0090562845488309,0.0602877551254001,0.1033360999893148,-0.005346555323898,1.6057409764575528,1.1721458101457387,1166.1141279635842,1132.5599010052088,1132.2777910466489,1169.9163199066995,479.46464152347977,-133.8448497975396,209.3083782351769,205.7418837556403,160.8329691423714
13.46,-0.8053931131174185,1.1593135738471338,-0.5003721298099623,0.007563411989178,-0.0025918516351925,0.0169473852478745,0.0052417667205392,-0.0018998191876058,0.0233616317519651,0.9997114015707756,0.0176812149135057,-0.0022975379085878,10.027223406174368,0.0091145369602513,0.0603049963708602,0.1039074412078383,-0.0053323048803608,1.6058864727726063,1.1724160073746404,1167.206455814676,1132.2799486586548,1132.8627497466482,1170.413439855126,397.5683948289149,-113.4216236666184,287.44158410759206,200.1054045724373,160.83286767353013
13.4625,-0.7745906280119109,1.3033572688481831,-0.6907048614965211,0.0050880225889022,0.0006738577673373,0.0155524489688988,0.0052427234732866,-0.001925410264145,0.0233757811357102,0.999711014614928,0.0167526015571062,-0.0013561609145666,10.029712274867304,0.0091699570166536,0.0603310256417854,0.1044749030200431,-0.0053172706958319,1.606031778858728,1.1726866578612016,1168.101969937729,1131.9927928868756,1133.714998967187,1170.9168469295619,239.55313631718343,-111.74941323099524,336.1854629354853,158.92797510931337,160.83266279285883
13.465,-0.6823732173439166,1.352808360126966,-0.7831702952528022,0.0027406100914625,0.0037768723367847,0.0136250771645048,0.0052465798814758,-0.0019441351566469,0.0233882027866258,0.9997106624718832,0.0154116015826671,-0.0005284787516472,10.032207151628056,0.0092191873398839,0.0603660473652584,0.105038573480615,-0.0053015227744736,1.6061771456535796,1.1729566599393395,1168.4042214962617,1131.7212015925,1134.5436770613253,1171.2080797306724,14.623338130966191,-129.3054763661328,348.96055473244814,76.26971565208521,160.83242199184807
13.4675,-0.518615973173227,1.3115248306475376,-0.7866907359689728,0.000396981947088,0.007538449150447,0.01071103464304,0.0052524194061418,-0.0019512864509108,0.0233982183045061,0.999710374406038,0.0135751370546993,0.0001562698544721,10.03470424245158,0.0092589893044179,0.060409089845451,0.1056000549820207,-0.005284522590077,1.606323209940436,1.1732254125607469,1168.175086628384,1131.3462655050448,1135.4598017408496,1171.2981955078224,-181.34510924934952,-170.1558694329567,371.7937090379438,-6.845516337397224,160.83210750962675
13.47,-0.302978544886463,1.1844705124172727,-0.7082133825752127,-0.0015118451020493,0.0116636333469756,0.007468254892429,0.0052600476041102,-0.0019427511356187,0.0234078902145589,0.9997101117238338,0.0111787784089128,0.0006872289926095,10.037200484900712,0.0092867646806557,0.0604587717190769,0.1061616470520947,-0.005266062326051,1.6064704728574892,1.1734925293293708,1167.4974959500148,1130.870422245335,1136.4026456065153,1171.1738521489851,-368.07997368012406,-205.82706598424468,369.65120914554143,-108.67206040481848,160.8317311159726
13.4725,-0.0475803795843887,0.9540266646860864,-0.5396253546575149,-0.0023070683057069,0.0153867350590131,0.0048531894008334,0.0052685721882516,-0.0019198202189753,0.0234193520821225,0.9997098281841063,0.0082719374727799,0.0010421461078168,10.039692404796892,0.0093014449319397,0.060513135187678,0.1067260081253605,-0.0052471577129047,1.6066186805013503,1.1737584750878105,1166.3346867599837,1130.3171301751236,1137.308057786577,1170.7548352057984,-592.8639983303399,-235.20924393633453,370.06839359044614,-250.73482476801004,160.83127896108766
13.475,0.2632692885406354,0.580735203785502,-0.2695272092289595,-0.0017065150135768,0.0184943755362131,0.0031209679166499,0.0052765365035259,-0.001888840683619,0.0234357664757424,0.9997094468410412,0.0050105811023222,0.0011908601937125,10.04217549712452,0.0093036974785787,0.0605697827063285,0.1072957176148619,-0.0052282495619727,1.6067674178006195,1.17402402362944,1164.5331759583637,1129.6943760256536,1138.2529875744672,1169.9201780251456,-695.7905306984052,-195.563105100306,308.1828730249954,-349.2051861487562,160.8306472073421
13.4775,0.4945449379397734,0.2192529818182237,-0.0258686442732136,-0.00020081193996,0.0197505576224181,0.0028206737603609,0.005284776772106,-0.0018530098111315,0.0234596104824997,0.9997089001552194,0.0014929878260362,0.0011570589947756,10.044643833581972,0.0092940276955109,0.0606266611217639,0.107872711808622,-0.0052098135839573,1.606916931354475,1.1742894549061336,1162.8557341064911,1129.339314649622,1138.848972151702,1169.0088092750543,-661.5182400401284,-75.55278293183348,182.35145876616903,-382.25248106512873,160.83004517623928
13.48,0.666984438224895,-0.1501795735888817,0.1887999220717881,0.0017768785458299,0.0196412655761126,0.0036314868041083,0.0052891968787034,-0.0018160708310133,0.0234866473004044,0.9997083013248852,-0.0021709068502836,0.0008716957822909,10.0470913863705,0.0092727612430769,0.0606806814350195,0.1084588528367295,-0.0051929616075294,1.6070668252759317,1.1745563616312487,1161.2255847581623,1129.3166121109944,1139.164744868298,1168.0089156198196,-650.0181520417228,97.99289488366544,60.45930069536846,-420.29035325635226,160.8293630708322
13.4825,0.7837301816600898,-0.5501980875034858,0.3643273625449388,0.0044364769048216,0.0180492647343263,0.0058751144624159,0.0052847188418156,-0.0017834342025617,0.023510787828588,0.9997078109284464,-0.0058352768282336,0.0002514303176313,10.04951141128918,0.0092407403696623,0.060728530096111,0.1090553259282114,-0.0051780835796918,1.6072171076928787,1.174826046702318,1159.6056433462832,1129.8292791240403,1139.151268655179,1166.9073575087727,-499.96007088330714,291.33470464895595,-74.06439621756017,-359.9473980892333,160.82844997690057
13.485,0.7969564724022237,-0.8137192785349899,0.4196749953011893,0.0069265414094909,0.0156607995592005,0.0084051426507032,0.0052687503717553,-0.0017614565398142,0.023529250656345,0.9997074988030784,-0.0093312740378666,-0.0007317415987384,10.0518961932098,0.0091995637003137,0.0607673916076453,0.1096623227904591,-0.0051650429237923,1.6073677769991972,1.1750993968686956,1158.7257844037465,1130.7732856342388,1138.7944228872104,1166.2091786293738,-220.93412856098624,484.3776370723997,-208.5814272147801,-211.18529227875447,160.82760909137326
13.4875,0.721135831533474,-0.9752592833730932,0.3775483523595877,0.0093796824165084,0.012600126178969,0.0106223424260748,0.0052440958002679,-0.0017519866554774,0.0235449186782998,0.9997072794788548,-0.0125755677564882,-0.0019898111071725,10.054237064062463,0.0091504259779051,0.0607956531305069,0.1102790196831617,-0.0051527175850093,1.6075189792997036,1.175376081074074,1158.500972703478,1132.2511673094027,1138.1083615191048,1165.851431047379,28.553200198980534,664.262978435714,-315.59229440176364,-81.1475452216528,160.82668479794222
13.49,0.5778657430999151,-1.0407576421055704,0.2707250375507255,0.0115237478705132,0.0093571408934052,0.0118628035690496,0.0052193627277046,-0.0017591005625527,0.02355809044712,0.9997070916950044,-0.01543618430781,-0.0033145177023736,10.056524605506263,0.0090944320437523,0.0608132142878746,0.1109037019003974,-0.0051401017039139,1.6076708900978705,1.1756546293997348,1158.8685504047414,1134.094600526418,1137.2164614152011,1165.8034409032655,278.14670044514133,788.683820985418,-379.51388694312567,47.5918804556026,160.82569191948724
13.4925,0.3701365174161258,-0.9897955629740178,0.1183698096053459,0.0130295323643887,0.0061180382877813,0.0118155166303446,0.0051980160488303,-0.0017854712896489,0.0235664680874214,0.9997069639560237,-0.0178110595913233,-0.0045969277112145,10.058751477212393,0.009031724042721,0.0608191921836662,0.1115353079195931,-0.0051268818176466,1.6078237389217358,1.175933626662607,1159.8917062057035,1136.194586414329,1136.2107920843896,1166.089390449657,557.4138784851168,919.8627893737848,-425.36556000616366,176.4736215247191,160.82461811553884
13.495,0.0772076728743244,-0.8090736461323546,-0.0769809313163544,0.013789075609927,0.0027742700383277,0.0110391603877088,0.0051819529209535,-0.0018302650779208,0.0235687792939058,0.9997069167054392,-0.0196687906660854,-0.0057560536579307,10.060911909445272,0.008961545060472,0.0608127613068342,0.1121729830235474,-0.0051127095360626,1.6079780495550144,1.1762132175060203,1161.6556197971674,1138.6939144732876,1135.0896336151702,1166.6858090108892,688.4050484179912,864.3391271446958,-364.6915261434854,232.48489594244353,160.82323966754473
13.4975,-0.1774122857339444,-0.5799000451689567,-0.2296331725192112,0.0135041481287834,0.0007824281224618,0.0101309031726574,0.0051711659475333,-0.0018866041706141,0.0235651411713833,0.999706958814852,-0.0211004622434228,-0.0067460898226798,10.06300193368948,0.0088818418602807,0.0607932479620078,0.112816019619662,-0.0050973324897757,1.6081335300381208,1.1764942602679789,1163.333731447794,1140.5162820500532,1134.3873344536719,1167.2518149293694,650.994391097622,628.5143941152342,-202.1881548840558,201.69219868639092,160.82201973248107
13.5,-0.4130930052213229,-0.3019074558395339,-0.3580429253484062,0.0123993632981163,-0.0003068406529322,0.0090755882243211,0.0051653825120793,-0.0019479353201926,0.023552384978524,0.9997071775372888,-0.0221919780194035,-0.0075284540215297,10.065019134915866,0.0087903242426312,0.0607607258488467,0.1134634798358781,-0.0050807613809481,1.6082897877733444,1.176777823722492,1164.910591752655,1141.8364864438631,1134.07869284075,1167.6942700043207,570.8220640938861,427.67349535587846,-45.60477810674453,129.04449825494177,160.8207314310966
13.5025,-0.6142670216667055,-0.0102464405169571,-0.4620835741159412,0.0108799083322818,-0.0007014737486113,0.0079854291949369,0.0051652367093436,-0.0020093966267794,0.0235323009064484,0.9997075352444864,-0.0229960228003245,-0.0080505044417758,10.066962515699727,0.0086859998789371,0.0607162783123152,0.1141140850852403,-0.0050634778649155,1.6084460607675368,1.1770645556554924,1166.1878417682628,1142.654649526832,1134.1593105631382,1167.897037420644,402.1561447963276,211.22758630582544,126.20170584462204,0.4863136014136366,160.81939145654425
13.505,-0.7561732619544371,0.265140237201478,-0.5351109746571193,0.0091961783361426,-0.0002989559829379,0.0068007633696829,0.0051697789948815,-0.0020650943018335,0.0235076635347887,0.9997079826668068,-0.0235894068279167,-0.0082963378580283,10.06883293775266,0.0085682437694718,0.0606615817717417,0.1147667421091579,-0.0050466526752263,1.6086012551026607,1.1773549472228049,1166.9213724766369,1142.8926243753924,1134.7097013699731,1167.696701572328,177.21992359376557,2.898992606923913,332.89978491911165,-189.00617058113085,160.81799590978454
13.5075,-0.8381295725494196,0.5354276461718362,-0.5855252068773588,0.0066817954330046,0.0011426722426712,0.0051704792929223,0.0051795024291922,-0.0021114311793668,0.0234803282105685,0.9997084814936708,-0.024005850968672,-0.0082292604772822,10.07063228692256,0.0084374035987676,0.0605995477691277,0.1154203904634315,-0.0050312958669809,1.6087546257727887,1.1776485581628409,1167.0739413862318,1142.6691444898668,1135.823809487734,1166.952006567738,-60.397657791339235,-134.4192573004688,460.7529301945768,-344.4520928327396,160.81626579261987
13.51,-0.8195511085247684,0.682450730531848,-0.595348001913436,0.0038821318470012,0.0031844187991354,0.0035619786909679,0.0051927066792082,-0.0021452744912903,0.0234532563553627,0.9997089784209274,-0.0242754352193352,-0.0078654774311151,10.072363810639752,0.0082945189199485,0.0605332830621751,0.1160747324477808,-0.005017422405096,1.608905938203594,1.177944089404406,1166.6193841876802,1142.2205280888902,1137.0134660209455,1165.9744411081647,-279.7588389543325,-198.9132970660792,493.63670846375055,-430.76083011694743,160.81478414039898
13.5125,-0.7030407845732487,0.7218524268237865,-0.5719185015845815,0.0010531776285085,0.0059852298869035,0.0020150543173853,0.0052084511745975,-0.0021656237700602,0.023425967665403,0.9997094921808422,-0.0243910407648033,-0.0072166561641238,10.07403106484382,0.0081410201558156,0.0604665847384969,0.1167299834197252,-0.0050041881939712,1.6090559703094884,1.1782397755492025,1165.67514719146,1141.6745780045362,1138.2919930300532,1164.798202417153,-491.7211890111644,-240.14275481664183,534.3431234155179,-509.3439595046788,160.81326854289543
13.515,-0.4601689645573752,0.6323460749692771,-0.5090038526980911,-0.0014268794921112,0.0096348206419188,0.0004794947901697,0.0052231947931632,-0.0021698159861778,0.0234001514154102,0.9997100076945415,-0.0243867546713688,-0.0063561101103686,10.075638087349587,0.007978394536637,0.0604028553184581,0.1173872517364789,-0.004990927838861,1.6092040290776375,1.1785352151452029,1164.160778242624,1141.0198143148068,1139.6851816380236,1163.427721310641,-590.8476682428311,-238.9918810648872,451.2874161780462,-455.9054023167389,160.811419122308
13.5175,-0.1910775638162177,0.4526999263656312,-0.4310479044113386,-0.0025955126314043,0.012263224341916,-0.0005724537144548,0.0052347189616523,-0.002158925573821,0.0233779740533549,0.9997104837747556,-0.0242281920717443,-0.0053423905770227,10.077188229952762,0.007809258099113,0.0603457705809057,0.1180477559427484,-0.0049776870209776,1.6093496013495605,1.1788306316669117,1162.7209088502464,1140.479618599212,1140.5484301109427,1162.5186754055699,-581.6613326676154,-228.43415395645928,246.19166762177323,-278.5655561174835,160.8098585155359
13.52,0.1159253175885915,0.1976264944301133,-0.3297625141776424,-0.002759237852345,0.0137016881334704,-0.0015174431442935,0.0052415508295421,-0.0021352114696536,0.0233564062175584,0.9997109940090404,-0.0238653797062258,-0.0042293410700161,10.078683987614813,0.0076361244090555,0.0602989413945995,0.1187126738643424,-0.0049649786355736,1.6094929898262411,1.1791266590382474,1161.2524715792863,1139.8776435450247,1140.9161399761324,1162.0348935300535,-570.8362251682064,-265.6182482544904,45.98564545766939,-109.71756195738737,160.80828502878643
13.5225,0.4278885386087087,-0.0818198055677809,-0.2110907350799812,-0.0020998433897008,0.0138127535918307,-0.0024202010297649,0.005245059806437,-0.0021000271971485,0.0233369501059108,0.9997114932501582,-0.0232734127471198,-0.0030212759843349,10.080126431899272,0.0074620845022912,0.0602659454830996,0.1193827157132651,-0.0049533415487382,1.6096338457566672,1.1794241185306231,1159.8667277244049,1139.1515273579391,1140.778358338231,1161.9700875957828,-511.22406509917903,-332.52134849585025,-183.5853615716755,70.5042882647266,160.80670624527767
13.525,0.7133370968529323,-0.339897530913354,-0.0760049583967601,-0.0006090474369454,0.0122493496416059,-0.0031361610835709,0.0052516955310905,-0.0020538247339989,0.0233234332391761,0.9997118578693048,-0.0224517951377986,-0.0016263283164416,10.081514757471336,0.0072904765776234,0.0602505923014911,0.1200577527246248,-0.0049429862982238,1.6097733746467635,1.1797231959450123,1158.6963512537902,1138.2150368025452,1139.9982131682739,1162.3874149713774,-439.93123139298064,-457.65744365085095,-474.55068938066125,266.1037105787347,160.8051273765932
13.5275,0.984704262574102,-0.5715274402719014,0.0928764526125976,0.0021416636727147,0.0091579916420255,-0.0033555260700833,0.0052654627768809,-0.0020009164962876,0.0233151631615609,0.999712075064728,-0.0213327187481706,-8.6218510200603e-06,10.082847993052845,0.0071250521382387,0.0602549616230285,0.1207376370960561,-0.0049339258136139,1.6099133500582354,1.1800235579409613,1157.6670715674404,1136.8632401396856,1138.4056048913285,1163.3006061486763,-301.36136788168926,-514.9287825615024,-661.5561023532665,372.0109073370496,160.803239974873
13.53,1.124322957497897,-0.6786534728930607,0.2261355828347509,0.0052781727924301,0.0063405289474786,-0.0028480270282815,0.0052858260696036,-0.0019486561953981,0.0233072839096953,0.9997122462765944,-0.0197983021152083,0.0017721165412406,10.084125725988088,0.0069696946777754,0.0602788228035242,0.1214224342490285,-0.0049262905090047,1.6100551881957512,1.1803254638363239,1157.1895444143815,1135.6403928897373,1136.690432656507,1164.2474695080627,-103.7124390815117,-470.78473360404047,-710.1740921025139,377.0430991827063,160.80167777987984
13.5325,1.148994163718957,-0.6957879442479019,0.3354078879791347,0.0090593949965281,0.0038468287483666,-0.0018506490068787,0.0053138127403045,-0.0019011004774852,0.0233008401819544,0.9997123331923898,-0.0178039329140483,0.0036891713279477,10.085347160692484,0.0068279779387235,0.060321158345902,0.1221117285046825,-0.0049200438969812,1.6101986830505084,1.1806299949443024,1157.1485093720328,1134.5093164716648,1134.8547344308151,1165.18582164459,81.76783783739474,-424.2051135105092,-758.7361019802446,371.13557572714046,160.80013122696187
13.535,1.0343104336808653,-0.6345603217317762,0.4247091984433214,0.0135194050979206,0.0016071826250957,-0.0004347029030231,0.005350340657699,-0.0018576543135543,0.0233015819838767,0.9997121986474796,-0.0154057368999981,0.0057177567396328,10.08651187584101,0.0067025171963693,0.0603800566088373,0.1228048761779065,-0.0049146744075591,1.6103437085831402,1.1809364118108916,1157.5983836035684,1133.5193673221852,1132.8967521466063,1166.1031473866983,240.52841836928803,-268.802141021987,-623.2774033896807,282.10337323972607,160.79829765811695
13.5375,0.8253599346352507,-0.5394559283590963,0.4580431814795499,0.0165633035646802,0.0004492477282005,0.0008456604241411,0.005390152185575,-0.0018148166316176,0.023315359984272,0.9997117419739096,-0.0127278155695778,0.0077135200404841,10.08762161622155,0.006594686042775,0.0604515088410025,0.1235017768666684,-0.0049092625074441,1.6104897530002824,1.1812442532569385,1158.3511514638788,1133.165305766555,1131.7383474138676,1166.5963385107884,363.1616264175478,-21.426608783255062,-314.7794372654479,132.71256133628157,160.79679059789044
13.54,0.5227565175198169,-0.4270888796663703,0.4454196410841848,0.0186932978636222,-0.0001191413577971,0.0022023825496569,0.0054267687403087,-0.0017712327514799,0.0233417959975759,0.9997110108120416,-0.0098577316533343,0.0095115239347941,10.088679476684744,0.0065051133015696,0.0605308285500479,0.1242022225609969,-0.0049033143483043,1.6106365614680889,1.1815538410900384,1159.4141917356565,1133.412234278269,1131.322854960279,1166.7667101933798,459.33133122182073,197.79462646626237,-22.32764079662608,20.15562545074912,160.79530716452348
13.5425,0.1689905556776304,-0.3164558302150774,0.3953060942718574,0.0200935263805508,-0.0003730424354532,0.0035219787835034,0.0054528734533594,-0.0017254018599677,0.0233747302855171,0.999710192393949,-0.0068914161350429,0.0109363843366913,10.089689971788353,0.0064332619779198,0.0606128660496314,0.1249058640754971,-0.0048962612838311,1.6107844454240798,1.181865723634307,1160.6478081199884,1134.1542788988868,1131.6267092098844,1166.697116638042,508.5330926741892,392.13994617929137,293.8678575159104,-67.33785381790288,160.79384412148903
13.545,-0.2062125535761884,-0.2177425210785771,0.3050466443861182,0.0202865953796468,-0.0004494907364738,0.0044543753717739,0.0054666265993648,-0.0016810745155705,0.0234094538053245,0.9997093987771972,-0.0038191734713667,0.0119279975691027,10.090657273704094,0.0063798463723073,0.0606935881260633,0.1256114351061407,-0.0048882355091407,1.6109338643365358,1.182180779681892,1161.956857199027,1135.3729340091647,1132.7921942478583,1166.4300209242904,557.2827294594589,589.1846745407555,675.6780659846279,-131.60505095163788,160.79240612809707
13.5475,-0.621731003642289,-0.1138350015479084,0.1604745244934667,0.0187576885468249,-0.0005386334595368,0.0048543617646791,0.005468167028355,-0.0016393239656851,0.0234448506134406,0.999708651077084,-0.000685666176592,0.0124748782668325,10.09158592118002,0.0063452887232604,0.0607694322529124,0.1263173936870523,-0.0048794759686618,1.6110854838170607,1.182498898992625,1163.4342217672852,1137.10020227159,1135.005099539807,1166.039091383284,502.18892671361,624.0867880829617,898.6415263068878,-132.08083045726863,160.7907102748381
13.55,-0.8957033976386363,-0.033597921065559,0.0161011837602573,0.0161993560343592,-0.0007050249978742,0.0048050260258279,0.0054610258107149,-0.0016037879370104,0.0234762872131748,0.9997080299323204,0.0025169326180193,0.0126399839905106,10.092479849900815,0.006330345732618,0.0608379941169603,0.1270218847720769,-0.0048709883890844,1.6112394039065316,1.1828195693600072,1164.4678018325951,1138.4933679495803,1137.2854018793935,1165.769616772004,352.3196285615899,484.4923978440572,928.9204279110803,-74.87657120685718,160.78932278808247
13.5525,-1.051965969604906,0.0498034919035022,-0.1499089709809253,0.0126035569145715,-0.0010028431900794,0.0048609343776237,0.0054498518526551,-0.0015772324811403,0.023498663521082,0.99970762414408,0.0057802944626401,0.0125157811521736,10.093342424468943,0.0063356507499647,0.060897776134441,0.1277232047799236,-0.0048640806378102,1.6113959826999509,1.1831425139648684,1165.1958199100934,1139.5226642608106,1139.649701679363,1165.6647085272496,234.11044773010985,315.43397664028726,903.0623844444993,-5.538995630878355,160.78796359518986
13.555,-1.0911089800544482,0.1414088063481509,-0.3321870294476987,0.0083506130718456,-0.0013616494593514,0.0052079328146838,0.0054379453665667,-0.0015614632358213,0.023507783471154,0.9997075118480196,0.0090785974518903,0.012173375137214,10.094176285085531,0.006361715104026,0.0609478993089901,0.1284202103909501,-0.0048596804937702,1.611553865596389,1.1834679723016517,1165.6383540712457,1140.0705378327812,1141.800713801615,1165.7419217938495,110.73277097819388,84.37068387255341,753.2070563064467,77.9777220746715,160.7866294098346
13.5575,-0.9879726277367792,0.2426060360838618,-0.5231274814965577,0.0041249041801545,-0.0016071523582928,0.0055604161539328,0.0054260856558276,-0.0015541071697196,0.0235054880115883,0.9997076486292588,0.012305214443179,0.0116387461101196,10.094982972680436,0.0064084029963151,0.0609880192983587,0.1291125979136809,-0.0048583479645053,1.61171085902303,1.183796095030293,1165.7494837649845,1139.9445176801735,1143.4157369608959,1166.0545971376232,-14.462876160175721,-198.7616068834685,544.1298886879454,188.12266438150587,160.7853276849586
13.56,-0.7322611530689244,0.3616719676312344,-0.7246195642867665,0.0001486197396285,-0.0013241202841901,0.0048996892288602,0.0054126214300077,-0.0015539359128126,0.0234956313683964,0.9997079545134528,0.0153813107562472,0.0108905429053239,10.095761646891551,0.0064753798260564,0.0610183715310514,0.129800969066986,-0.0048595382342447,1.6118646814834208,1.1841265507257634,1165.5660396904448,1139.0767297983639,1144.5213632450552,1166.6825351157572,-105.88088965093733,-405.6001202158666,259.90603320552225,264.5756275433613,160.78380668171457
13.5625,-0.4541632088927998,0.4403310975638596,-0.8249960124249748,-0.0018293267735182,-0.0003127885261365,0.002722893386764,0.0053941151502368,-0.0015599560043896,0.0234783557789301,0.9997084466808625,0.0182387757530883,0.0098723711127085,10.096507986586044,0.0065607597667788,0.0610397112503782,0.1304868721291393,-0.0048612701717089,1.6120149778507427,1.1844582744008776,1165.2200793167299,1137.9165170790943,1144.7152671269232,1167.3774752753395,-159.19352729900748,-500.3322581831157,-56.32443713908498,298.4211940494926,160.7825763780861
13.565,-0.1769181509020275,0.4717425178135796,-0.7968171950563359,-0.0019934036410501,0.0014459790827147,-0.0011892794965228,0.0053691079357158,-0.001571329550606,0.0234550662178007,0.9997091027586652,0.0208227057732655,0.0085675153938436,10.097212443036849,0.0066614449591911,0.0610537450548498,0.1311723500114956,-0.0048611458336413,1.6121626074040796,1.1847901058900463,1164.77007205395,1136.5750685074488,1144.2397410593599,1168.1746410860044,-200.7448968569547,-565.0583775708609,-323.2637230755649,349.54276608522366,160.78138831819632
13.5675,0.0765683461355333,0.4325081771322974,-0.5712658396430139,0.0003611190157496,0.0041242123948124,-0.0067011838278433,0.0053394960496017,-0.0015882512520411,0.023428387264714,0.9997098525181312,0.0231111608473095,0.0070255219137308,10.097859251591382,0.0067734045500357,0.0610630174781403,0.1318596247849519,-0.0048575529692615,1.6123083047601783,1.185122296668505,1164.2163548324447,1135.0912251912398,1143.0989485115451,1169.125189105766,-193.8394762147406,-481.26889712754496,-477.880820583612,325.8382275357635,160.78001466817287
13.57,0.1837910678179358,0.3323330628716061,-0.2272018993614645,0.0038060833740434,0.0064158879085387,-0.0106532620165732,0.0053061108903524,-0.0016059851784198,0.0234001932835724,0.9997106564011042,0.0249933930599418,0.0052755094482411,10.098427781533188,0.0068901688841169,0.061069435153116,0.1325514959936599,-0.0048499551635488,1.6124526717883447,1.1854552197564743,1163.800874672876,1134.1687240218107,1141.8503369564414,1169.8038322236835,-151.8218413637289,-269.7303586032458,-520.5348856772742,221.4806180300897,160.77891461988267
13.5725,0.1821815967695227,0.1793313376955463,0.2243767922282941,0.0063682863542465,0.0078203819379867,-0.0121792660595252,0.0052687669065845,-0.0016217052393034,0.0233699039131964,0.9997115351307952,0.0264081656044596,0.0033239730131622,10.098892101182244,0.0070049267569983,0.0610739723940931,0.1332510719753815,-0.0048381730276207,1.612596963031909,1.1857881716988397,1163.4572456256265,1133.7425733982238,1140.4962740831593,1170.2325921959164,-130.03604691550905,-76.76270858117897,-533.8148244564838,114.27253931395204,160.77786127113066
13.575,0.1240368208002265,0.0096385518051161,0.6945126104273872,0.0067319377803705,0.0078584059456676,-0.01095267026709,0.0052318577668176,-0.0016357618466295,0.0233389039389089,0.999712433383064,0.0273721807688162,0.0012671196312365,10.099220220085025,0.0071120318586984,0.0610779666201815,0.133960842943505,-0.0048219981531706,1.612742958488584,1.1861204407378363,1163.1506944382984,1133.7849104789047,1139.1812628341584,1170.3751949202533,-127.66926299844096,126.86381430965245,-494.7170811376645,-19.114092075457588,160.77684600003187
13.5775,0.0543417569622946,-0.1429372559446477,1.091113654404544,0.0047451549858441,0.0066067509205176,-0.0067800373862232,0.0051984057004661,-0.0016448190644044,0.0233120913719505,0.999713225380728,0.0278377379665298,-0.0008258237653918,10.099377297304223,0.0072059442584989,0.0610816525503471,0.1346831648247407,-0.0048020439116443,1.6128914604014435,1.186451807458265,1162.818899310634,1134.3768924697722,1138.0226886774703,1170.137021735539,-173.87658591472976,365.771462151888,-456.40032998635417,-180.33784476810015,160.77587476801256
13.58,0.0056667080007405,-0.2720625614146932,1.3821653148254136,0.0019860364659984,0.0047273573834497,0.000113997062719,0.0051665927572716,-0.0016474559143707,0.0232904697003403,0.9997138971256828,0.0278016043712775,-0.002984415431119,10.099327454371275,0.007282393708615,0.0610835506133287,0.135420238322872,-0.0047799228352547,1.6130423961602252,1.1867831583094373,1162.281311508725,1135.6137677896638,1136.8992611842273,1169.4735056964128,-232.84381146359092,515.7661933073657,-361.32891871318776,-282.4141403955416,160.77475639019073
13.5825,-0.0034781085313338,-0.3250671646621292,1.4318523628499005,0.0008906372313442,0.0032180893755093,0.0064055050458136,0.0051352761765687,-0.0016454833909691,0.0232746298902292,0.9997144361075964,0.0273323112857711,-0.0052261684663155,10.099034475062496,0.0073396365739865,0.0610822200545875,0.1361730725821171,-0.0047572872392514,1.6131951064928536,1.18711546442174,1161.6546802533164,1136.9557234363083,1136.2160440839048,1168.7249510335616,-290.88051665335115,563.7435604085596,-217.75485126873951,-303.03835635036006,160.7738598860285
13.585,-0.0071857438704293,-0.3257920725040766,1.2835440251745944,0.0013525637354697,0.0019466421874544,0.0120594650968751,0.0051038459834546,-0.0016392133745687,0.0232634242242715,0.9997148712230064,0.0264717613649739,-0.0075569235909834,10.098464720923804,0.0073772125763084,0.0610765967701937,0.1369413296217374,-0.0047359384773473,1.613349999049972,1.1874488282649767,1160.826908925458,1138.432485591707,1135.8104869278834,1167.9583139146607,-393.8907477339238,633.3273398453376,-111.24513119592018,-304.0437290666412,160.77299484346935
13.5875,-0.0438930916128515,-0.2851502112560841,0.9360654513557232,0.0025798682053568,0.0009547530638997,0.0164063021786332,0.0050696033099138,-0.0016307147475591,0.0232538578691315,0.9997152833175024,0.0252970338088982,-0.0100252621750177,10.097589856118908,0.0073967323823209,0.0610655577460326,0.1377234723980644,-0.0047176422999534,1.6135056447031466,1.1877844574955259,1159.6852265146465,1140.1223601355357,1135.6598184279253,1167.204732388228,-417.63808539121,572.9140313253769,4.680016520661432,-233.99687143351113,160.77198745606864
13.59,-0.1182748329795028,-0.2345846236361193,0.5724776872469389,0.0031722807246062,0.000603147280327,0.0172775238434409,0.0050304581820569,-0.0016244218144448,0.0232451578436326,0.9997156954579998,0.0239317724979812,-0.0126685922716221,10.096388695233578,0.0074022348156307,0.061048804368668,0.1385164047227465,-0.0047033927553152,1.6136600686214655,1.1881238259633835,1158.7387184985023,1141.2970557483332,1135.8338870104867,1166.7883295574936,-337.6440747228043,390.7400252743017,137.6702964186064,-124.15204775937003,160.7711704729772
13.5925,-0.2421775928527378,-0.1862820745112206,0.2115479709850167,0.0031307341865207,0.0006316524181786,0.015873111736009,0.0049897586369643,-0.0016230526390984,0.0232378773353526,0.9997160748018928,0.0224637857940888,-0.0154136480117663,10.094848902739017,0.0073984580985541,0.0610282429293733,0.1393150934067765,-0.0046924615344011,1.61381174117405,1.1884678115335396,1157.9970061410322,1142.0760602619075,1136.3481699100184,1166.5839721494312,-234.0625591412934,233.74087704101825,264.52117930771647,-59.01062546953641,160.7703746455709
13.595,-0.4023616119407396,-0.149475615992661,-0.1080226044672433,0.0029213740620477,0.0008191303825669,0.0138089584051359,0.0049511008299419,-0.0016275922915497,0.023231695326112,0.9997164111448174,0.0209405708236626,-0.0181810080488179,10.092969743363277,0.0073899525017264,0.0610063410194404,0.1401135473350772,-0.0046844307917002,1.613959450683078,1.188817252618667,1157.5684057027956,1142.4657601335387,1137.1564929070255,1166.493276430146,-74.18660303261844,62.415961339196336,389.8227741175881,-29.36349675824788,160.76959578668
13.5975,-0.5929872502678679,-0.1294824026389637,-0.3651986356186931,0.0023792755981874,0.0009261442292619,0.0119176627837808,0.0049199376436421,-0.0016376752714975,0.0232274026182188,0.9997166618792112,0.0193771736122125,-0.0208526036584223,10.090762788813116,0.0073809177785367,0.0609860935844635,0.1409050846193118,-0.0046786815429807,1.614104065431041,1.1891718769161252,1157.6260731258692,1142.3881400686034,1138.297283780606,1166.43715466564,139.69588469470233,-124.75823696797968,560.6362116856624,-39.15196639419133,160.7688379966414
13.6,-0.8276111580671868,-0.1187150494280235,-0.6192867879290275,0.000719867238658,0.0005796908534952,0.0104056335469954,0.0048992071364709,-0.0016474442543825,0.0232290634556023,0.999716727715688,0.0176706747164333,-0.023357511936024,10.088253294660085,0.0073738340034359,0.0609693120901119,0.1416834237674194,-0.0046742381523088,1.6142472100971752,1.189531014589454,1158.266885126269,1141.8419689486989,1139.9596739654532,1166.2975165981748,311.40229394745484,-254.80577038925384,638.3062832085582,-71.66040412502088,160.76795545238218
13.6025,-0.9995958223769548,-0.1130334801103165,-0.808384695790325,-0.0014204614174046,-7.402836441665125e-05,0.0100472348227934,0.0048879605451084,-0.0016553702181379,0.0232382341353373,0.9997165778353648,0.01579787345145,-0.0257030465351815,10.085478953519146,0.0073712224879945,0.060955900253174,0.1424431845952045,-0.0046707286775004,1.6143898743633835,1.1898941035337562,1159.1830845956067,1141.1141112166567,1141.4888151966493,1166.0788526450149,403.93838060556897,-319.86669385582445,616.495634744746,-106.9171497105632,160.76724531495475
13.605,-1.11025993728274,-0.1047403778354454,-0.9902682869008782,-0.0040603206584091,-0.0007112534502026,0.0098903266174034,0.0048852026848091,-0.0016650535160693,0.0232541061697442,0.999716227946662,0.0138343322814587,-0.027896741865489,10.082487894778495,0.0073757687174572,0.0609447701301211,0.1431797765881027,-0.0046676736719261,1.6145328655966045,1.1902610069618489,1160.2865770292972,1140.2426354794195,1143.0421521391775,1165.762930849622,433.0354181439313,-355.15914242889966,611.21404813401,-133.43549291496782,160.76656612965365
13.6075,-1.1426816224422387,-0.0945782458563869,-1.1572506214078508,-0.0071598950036181,-0.001033010086049,0.0087454044194433,0.004892333756566,-0.0016810233203175,0.0232763977851159,0.9997156682938322,0.0118724506302612,-0.0298944568607235,10.079336720238175,0.0073894113154514,0.0609345378644206,0.1438894581723838,-0.0046645070584817,1.61467757517883,1.1906309310013743,1161.348261686326,1139.3383155045128,1144.5448854373187,1165.41167518044,368.1606807522536,-360.3487157077132,580.4403832449925,-132.51645133530383,160.7659161805276
13.61,-1.0514629958178383,-0.0860008048331966,-1.269255332290108,-0.0106466484233983,-0.0009650581500604,0.0056785767430072,0.0049101457232941,-0.0017044388843361,0.0233033204686604,0.9997149318506984,0.0099350632180237,-0.0316581941821066,10.076088784113663,0.0074118174980154,0.0609228967474057,0.144569997127463,-0.0046608736855417,1.6148245650079607,1.1910034855034994,1162.127380433058,1138.4408919008813,1145.9443540554018,1165.1003485929457,234.1834004128575,-400.2105525789204,587.8676389849252,-105.55919182268723,160.76530519865923
13.6125,-0.7742328821762209,-0.0800445289929308,-1.2814752259719444,-0.0148864299574576,-0.0008013759226053,0.0002971029930984,0.0049385446492579,-0.0017367662264523,0.0233344779125808,0.9997140222785316,0.0080514730096201,-0.0331631775839772,10.072811011749716,0.00744183490784,0.0609067698319032,0.1452208205699786,-0.0046560983720296,1.6149740571253408,1.1913777926149964,1162.5191786883904,1137.337262741618,1147.4842236322438,1164.8838792213267,41.512527106617995,-424.68042309103754,536.8038628862521,-40.962877814575194,160.76462101497455
13.615,-0.4007744345856243,-0.0760907012015959,-1.1581253496217512,-0.0181700849741277,-0.0008079900886373,-0.0048689462676285,0.0049790722603002,-0.0017784597440687,0.0233694412425074,0.9997129366228528,0.0062337272066288,-0.0343464698260939,10.069570516038247,0.0074770989838608,0.0608834414015411,0.1458427798191034,-0.0046492552933349,1.615126261386309,1.1917522492516588,1162.3349430685912,1136.3174897854256,1148.6283733698335,1164.8955342038728,-165.43344985801576,-447.8700775628549,413.00020399793567,47.94834506875349,160.76409395832545
13.6175,0.0969386754032743,-0.0656579166400622,-0.8894612171837968,-0.0203697229763712,-0.0010985130589511,-0.0098208275982912,0.0050332051198722,-0.0018321404937505,0.0234025248131245,0.9997117882831204,0.0045410810234236,-0.0351432492055175,10.066431621989253,0.0075145800497396,0.0608505251034093,0.1464382087544748,-0.0046399161063308,1.6152810352695828,1.192125871423926,1161.6920114391005,1135.097912353804,1149.549224652233,1165.1236209466704,-341.031624533381,-586.9553033520325,318.8699648047033,134.74364321575817,160.76361361936898
13.62,0.7708359395735677,-0.0363380111341523,-0.4420124489623608,-0.0206217822461548,-0.0017781176467821,-0.0137801565370448,0.0050983745859223,-0.0018990525566184,0.0234286168483154,0.9997107004886208,0.0030081395619973,-0.0355665397064643,10.063453869148052,0.0075505849389151,0.0608051279797289,0.1470111728144856,-0.0046281040100909,1.6154373053251487,1.1924989137796176,1160.629784945924,1133.3827132686652,1150.2227231938573,1165.5692524199517,-390.6934539646344,-653.4282344542933,143.65023533175673,168.59217494081443,160.76309261782654
13.6225,1.3249465336203397,0.0048242683938711,-0.0265877471955292,-0.0180878923181286,-0.002484811951719,-0.014175372679629,0.0051658127299536,-0.001979463264551,0.0234462149278773,0.9997097573994228,0.0016526474453847,-0.0357521789140815,10.06068991920216,0.0075816078824775,0.0607434564411833,0.1475673806424764,-0.0046138660823268,1.6155944094445556,1.1928708342677807,1159.738544169277,1131.830771181532,1150.267475828892,1165.9665818213743,-301.4858492352377,-603.2032301183172,-121.0341751636192,129.1760187174334,160.76270504128922
13.625,1.7764621790101671,0.0571471926713442,0.3469569873975533,-0.0125189402986602,-0.0029377219134173,-0.01167728393215,0.0052301363992471,-0.0020709231315932,0.0234557291987127,0.9997089887449192,0.0004450775386867,-0.0357668877824327,10.058182516010127,0.0076040479462791,0.0606638555048551,0.1481126664882506,-0.0045977912833452,1.6157519442064436,1.193241523380114,1159.122355699748,1130.366697118074,1149.617552318039,1166.2151325135387,-169.34098930222447,-531.5637616148854,-384.7092756277417,49.867115595507954,160.7623656911246
13.6275,2.0827897227073886,0.1063122301251081,0.6347998202307487,-0.0053300941449409,-0.0027902697882099,-0.0080886630160609,0.0052868329810751,-0.0021660050907202,0.023456563584108,0.9997084523785652,-0.0007383732232268,-0.0356598913522195,10.055963874942758,0.0076134667303626,0.0605662405059866,0.1486529400479889,-0.0045817169069702,1.6159082012216643,1.193612191956172,1158.891839222766,1129.1729523734582,1148.3439294507536,1166.215917399352,16.542283134592395,-371.82058925626376,-646.1401896034558,-79.02262053083761,160.76206591516964
13.63,2.174877114577296,0.1323244528824681,0.7920786611495176,0.0021892641926104,-0.0019296413831242,-0.0046430652296425,0.0053322145979961,-0.0022539193224746,0.0234494294193964,0.9997081776875578,-0.0020838482623428,-0.0354667494686381,10.054055212745938,0.007605454876291,0.0604520018714449,0.1491938511201858,-0.0045669861472666,1.6160623004442358,1.1939824509944175,1159.2050671154211,1128.5075941717923,1146.3868513700215,1165.8200194108845,252.8265699853878,-143.43081208237467,-969.7293059401394,-268.90639875992184,160.761813100149
13.6325,2.036312838932026,0.1178203975914496,0.835061456694415,0.0103214882555539,-0.0006059385578306,-0.0014157269725435,0.0053655597854788,-0.0023267846012097,0.0234401593377696,0.999708050362634,-0.0037135559664919,-0.0351711669911785,10.052466462909035,0.0075778791419921,0.0603243502673529,0.1497401779092558,-0.004553437437922,1.6162140935256375,1.1943515907240012,1160.1559720726932,1128.4557983130462,1143.495282921052,1164.8713854055522,419.0048872762797,103.77061696069423,-1098.2564112504317,-410.5273439355549,160.76156272104205
13.635,1.7414505347354483,0.0636080255865072,0.7705792555943292,0.0157681248849431,0.0004237092192327,0.0005124149094487,0.0053880373343757,-0.0023802579639876,0.0234328455456427,0.9997079780542788,-0.0056750365206636,-0.0347284878101897,10.051197377628368,0.0075300709443936,0.0601878235739693,0.1502956280051642,-0.0045412240702648,1.6163635254159257,1.1947197193464667,1161.300091551802,1129.026447256596,1140.8955693137705,1163.767382691207,490.7381843678792,333.3717152748183,-1009.8513031047116,-469.43319780572824,160.76139707270843
13.6375,1.3155912672661672,-0.0254162958970227,0.6330092453437227,0.0194198578098083,0.0010972953914831,0.0018790443054628,0.005397287950177,-0.0024118674543804,0.0234289960342721,0.9997079427863939,-0.0079784108878678,-0.0341749472387202,10.050239889845244,0.0074620057994217,0.060046381811895,0.1508631576874308,-0.0045304149387518,1.61651036773518,1.1950877673704003,1162.6096629945328,1130.1226568894203,1138.4460264055278,1162.5242194165232,522.7491113871657,501.0431360377551,-907.167315453802,-486.2895276166605,160.76127440643825
13.64,0.8285128665093807,-0.127293687202863,0.4560901048779617,0.0216544339817567,0.0012371459322059,0.0029210727364216,0.0053928944902557,-0.0024210100976045,0.0234300331952426,0.999707913610652,-0.0105948382418516,-0.0335182623116347,10.04957921365815,0.0073744479215848,0.0599046938818809,0.1514440270176273,-0.004520531332516,1.6166552646785908,1.1954570349019007,1163.9138371087383,1131.531662936785,1136.3597327365007,1161.3359350531234,494.45154463529275,608.3415993821592,-704.6303593485428,-424.91881242635185,160.7611859548954
13.6425,0.321970970633729,-0.2181208275905907,0.2527053879349507,0.0223925651053636,0.0004630855058681,0.0035181655980217,0.0053731725392006,-0.0024093726524033,0.0234356530600488,0.9997079017798316,-0.0134506369548056,-0.0328023198593585,10.049196386352392,0.0072687073632209,0.0597669027656022,0.1520380747636192,-0.0045114798548604,1.6167979183545893,1.1958298640960932,1165.0819207177087,1133.1643648863308,1134.9228746087858,1160.399625354392,461.1768725016199,734.875025665279,-456.5636002876089,-323.25861401161154,160.76113679738
13.645,-0.2484551433435006,-0.2813447567490923,-0.0001888874356372,0.0218499722431754,-0.0013607612286262,0.0035166128502181,0.0053368112970727,-0.0023783668171302,0.0234425160496231,0.9997079888145798,-0.0164790220058403,-0.0320724295394247,10.04907013260646,0.0071456129450739,0.059636870986544,0.1526437167548523,-0.0045027722650207,1.6169374220911064,1.196208409878039,1166.219721471246,1135.2060380651108,1134.0769147350632,1159.7196419830657,364.25960040381807,740.3325249801335,-168.98404206628672,-170.26638324052396,160.7611203975021
13.6475,-0.6570640047879904,-0.2809564081252044,-0.2064131652266663,0.0203717118649748,-0.0032795368196897,0.0030245919776503,0.0052863493336952,-0.0023276254457061,0.0234495959351095,0.9997081858174228,-0.0196493007584097,-0.0313034488363024,10.049178078455297,0.0070056443323191,0.0595188290995102,0.1532580259131677,-0.0044938583674191,1.617073708864516,1.1965933276227436,1166.9032187197283,1136.866027511232,1134.0779543984543,1159.5482934381891,212.5300668206032,632.0826632458569,115.18908309047237,-0.3747678500075704,160.76113993502602
13.65,-0.9623245424104084,-0.2261459391223815,-0.3986916821645988,0.0178122820622956,-0.0050058658785617,0.0023374001641823,0.0052259775944841,-0.0022571121980554,0.0234576332041625,0.9997084540512688,-0.0229263088820496,-0.0304431927703304,10.0494983090345,0.0068495045243843,0.0594163041887877,0.1538776428594229,-0.004484461242224,1.6172078618092045,1.196983217618766,1167.2823718053492,1138.3664513813403,1134.6528601505156,1159.7177681438156,93.80769999372252,598.9986306606907,328.1777636088662,119.35463019847349,160.76119095320897
13.6525,-1.1807177383081795,-0.1234008496268822,-0.6047040441142973,0.013447983219588,-0.005803498111045,0.0012954789136172,0.0051600716907606,-0.0021718908771351,0.0234649745060295,0.9997087988748452,-0.0261762304494069,-0.0294423063429655,10.05001042168892,0.0066791816324765,0.0593313470181372,0.1544995262721402,-0.004474546301723,1.6173413374197607,1.1973764974288004,1167.3722572196968,1139.8610206645349,1135.7188432164983,1160.1450665891812,-26.828441434641164,482.672901002813,408.75214104519694,164.98555152336087,160.76128478449587
13.655,-1.2302900018573704,-0.0357114442551333,-0.7465990300796728,0.0090018233412837,-0.0051045911995953,0.0001436972606439,0.0050951477188307,-0.0020825634405344,0.023470925589039,0.999709179693537,-0.0291574792214119,-0.0282129108857256,10.050695701067513,0.0064986463627175,0.0592649149100377,0.1551211438849459,-0.004464024469422,1.617475759502077,1.197772121569599,1167.148229598176,1140.7798158863548,1136.696620855742,1160.5426959014324,-146.65994584331636,290.84390643988627,364.8939669192144,138.5723783275136,160.76138717626847
13.6575,-1.1534969736209275,0.025491016637312,-0.8397791490543344,0.0046968039330611,-0.0038162917952152,-0.0015565054416203,0.0050408770839427,-0.001997077174391,0.0234743647318119,0.9997095559655912,-0.0316856871328449,-0.0266023578791405,10.051536852885848,0.0063113189323239,0.0592173419898502,0.1557406479801051,-0.0044531135871944,1.6176138598232976,1.1981682468643071,1166.63895749048,1141.3152401967343,1137.5433130510946,1160.837928480819,-245.3481588383544,152.82210555081605,295.55253556965414,89.8947467698869,160.7615108819766
13.66,-0.9993560576308936,0.0570637990054369,-0.8747127042335591,0.0013174548140163,-0.0027489032899829,-0.0039160373048787,0.0050031879025811,-0.0019221954299296,0.0234737331237099,0.9997099199332928,-0.0336082040696789,-0.0245308800925944,10.052518630162316,0.0061206096899916,0.0591865618727233,0.1563576489119517,-0.0044423371538441,1.6177567848100336,1.1985634422629077,1165.9214888039844,1141.543926414109,1138.17438353359,1160.992169635282,-329.10727286523246,30.70081712622297,191.4809051891024,30.500521792470565,160.7616492315916
13.6625,-0.8019256702901109,0.0609770786731236,-0.8186390044374898,-0.0004309241216817,-0.0023570128488257,-0.0071052242942513,0.0049848153321702,-0.0018667714455777,0.0234696098646734,0.99971022662242,-0.0347386100850443,-0.0219808442571211,10.053627338743983,0.0059313582470616,0.0591688505013728,0.1569728421452587,-0.004431788066521,1.6179051906189428,1.19895637198836,1164.9934211261543,1141.4687442823656,1138.50071757704,1160.9904310897812,-443.5501919813976,-80.48128431245112,79.20639236916611,-16.44816750799434,160.7618013423549
13.665,-0.5814752498631238,0.0552750304058944,-0.6348940338671946,-0.0005906240050312,-0.0027350252399558,-0.0112526481143559,0.0049838000637703,-0.0018359220580503,0.0234617846903794,0.9997104805350048,-0.0349753262860783,-0.0190239813295432,10.054850585546628,0.0057477264350394,0.0591591962105365,0.1575877659672425,-0.0044219334144368,1.618058121377597,1.1993472639359655,1163.703737844077,1141.1415199925464,1138.5704154954356,1160.909928797742,-487.74492454678347,-145.65129236254958,-16.349384891961737,-22.15160530053817,160.76199449302038
13.6675,-0.4460542536662077,0.0560814163533746,-0.3971105481349985,0.0002782042614551,-0.0035163900935782,-0.013939721839509,0.0049950004773235,-0.0018301454126959,0.0234504189239763,0.9997107029323712,-0.0343190417604367,-0.0157908955815035,10.05617678234541,0.0055730628086068,0.0591525068481731,0.1582040724522393,-0.0044135423893234,1.618214451097652,1.1997373365426391,1162.55469650342,1140.7404878205527,1138.41897065258,1160.8796730632787,-450.15213862447894,-179.62100238118117,-88.99606026354328,16.977094992038214,160.76216039876476
13.67,-0.3707716267885009,0.067839979617548,-0.1128370764083426,0.0007910702449467,-0.0041245525546602,-0.0147961359247439,0.0050131729249322,-0.0018435923780235,0.0234393874100823,0.9997108398783724,-0.0329059269162356,-0.0124091483470894,10.057594552172148,0.0054096542878628,0.0591451640761869,0.1588227254602819,-0.0044078083863221,1.6183721745859916,1.200128913738045,1161.4529771509551,1140.2434149806409,1138.125435194118,1160.994814272702,-437.5285081444833,-242.7026923340264,-149.69856640439752,96.65685817423869,160.7623269284732
13.6725,-0.3233068441957657,0.0828542007520567,0.2162037206225546,-0.0003053930469093,-0.0038582277209363,-0.013502391020003,0.0050365621238053,-0.0018688765929592,0.023431925672124,0.999710838531059,-0.0309093687929257,-0.0089350226297367,10.059092227394318,0.0052595031333434,0.0591365536885781,0.1594433490372823,-0.0044054775191821,1.6185285455683451,1.2005240941474644,1160.367053962698,1139.5269743588829,1137.6704778205583,1161.3629573541496,-332.45150463921425,-285.83037955818406,-178.91931957480597,172.37959289147545,160.7625224771911
13.675,-0.2901429580079361,0.0824322730163321,0.4372699225041875,-0.0023534566217329,-0.0029129872692459,-0.010985733411482,0.0050625538425879,-0.0018995319663875,0.023427280268658,0.9997107432898634,-0.0284923242625391,-0.0054438316384445,10.060658666789118,0.0051243004506014,0.0591277406958416,0.1600648649300939,-0.0044058677316359,1.618681556915956,1.2009239781429637,1159.7907196277588,1138.8142630828495,1137.230838596244,1161.8567122371596,-138.99960172191288,-306.87945276117466,-183.11647134739223,225.818428521062,160.76267835648252
13.6775,-0.2407188963380898,0.0590577420398539,0.5750544274169387,-0.004287389528636,-0.0018767508546776,-0.0082090500635226,0.0050854587685392,-0.001930263774269,0.0234248724412506,0.9997106095368882,-0.0258018698046468,-0.0020758208215782,10.062283513186904,0.0050055684906585,0.0591203849064675,0.1606861498579111,-0.0044084091361652,1.6188295364998284,1.2013294922933884,1159.6720559540884,1137.9925770950767,1136.7548954638212,1162.4920494967553,35.577969996855046,-336.3637648639938,-189.16051649984308,264.9205397962832,160.76282288189032
13.68,-0.1774131835697909,0.0197332654399675,0.6440322800733658,-0.0054288175770736,-0.0011365164137119,-0.0059517765265882,0.0050989736927862,-0.001955962828749,0.0234228429249673,0.9997105264671856,-0.0229864851598287,0.001012697476781,10.063956209325463,0.0049038377753299,0.0591169331450719,0.1613063022128851,-0.0044131016986647,1.618971929496456,1.2017399733001892,1159.968609477743,1137.13244425853,1136.2850360137447,1163.1813149361408,213.13192039302828,-328.9536305262513,-170.69253559090672,269.26546420545833,160.76295512986064
13.6825,-0.1118228423006868,-0.0234695680496923,0.6483381775963099,-0.0056641599216202,-0.0009601310339028,-0.0044864161865464,0.005103579462489,-0.0019771483077721,0.0234186901125227,0.9997105512782112,-0.0200811007376669,0.0037953155060495,10.065663486708104,0.0048202288859812,0.0591221996734685,0.1619242931385554,-0.0044189492482515,1.6191098753701072,1.2021539131559027,1160.7377155560537,1136.3478089424452,1135.9014327858663,1163.8383768177828,424.2163830426098,-287.10939545480926,-120.88037784299487,254.43957809625888,160.76306926812788
13.685,-0.0535894542169495,-0.0523560177710357,0.6080652433165327,-0.0055563571809653,-0.0014698177765967,-0.0035778907033607,0.0051032066362306,-0.001995991252975,0.0234122869944697,0.9997106654074088,-0.0170861794236971,0.0063108302091075,10.067388729169227,0.0047553029835236,0.0591415976498985,0.1625397948138037,-0.0044236432717434,1.6192453428930895,1.202568837476796,1162.0896913929564,1135.6968972812558,1135.68063412453,1164.4535128266223,541.2238239858365,-161.8102936473728,-19.31891862323412,179.12672180795124,160.76318122842108
13.6875,-0.0362536488341241,-0.0382967247647405,0.5518328779715915,-0.005410714675864,-0.0024216219956164,-0.0031571956867018,0.005105386961359,-0.002015243344509,0.0234001970930802,0.9997109074476382,-0.0139877652054733,0.0086677365593339,10.069110689419832,0.0047080751202193,0.0591807387722425,0.1631532794882053,-0.0044259139771307,1.6193801048518133,1.2029830521291227,1163.4438346759823,1135.5387574742083,1135.8048381927504,1164.7340104268224,551.6348405569448,37.216316472730014,133.69063209532146,51.828065922847,160.76325086565095
13.69,-0.0633814157848552,0.0279301275068059,0.4752692235864442,-0.0048919893690275,-0.0036225429647805,-0.0022368899503597,0.0051096660424341,-0.0020309928639277,0.0233822101687183,0.9997112894954944,-0.0109060978472504,0.0108162505714399,10.070805284013636,0.0046745825843958,0.059241364001108,0.16376725109212,-0.0044256704945552,1.6195140441973708,1.2033964627509524,1164.8478655957404,1135.8829788636194,1136.3490872850064,1164.7126531562365,541.1676648405837,220.34077963240827,293.17027079559887,-57.83489067784109,160.7632927406769
13.6925,-0.1309839067504211,0.1340741844755047,0.3754247585341161,-0.00395665864873,-0.004560690457219,-0.0006335770102946,0.0051126107445211,-0.0020390985859074,0.0233618026121439,0.9997117525857664,-0.0079620891784874,0.0126480427030861,10.072443865541175,0.0046504372640058,0.0593227195302111,0.1643852706266756,-0.0044228518646852,1.6196476482794155,1.2038088779774416,1166.1496730001857,1136.6404613723707,1137.2706895467284,1164.444835973433,466.5601011110719,380.07487398388974,452.01772539473706,-151.80375540596643,160.7633093299032
13.695,-0.2378278925014613,0.2666469673608481,0.2416316416150459,-0.0032547500165415,-0.0044583374652533,0.0009312036864519,0.0051139381887825,-0.0020396723807545,0.0233411142028419,0.9997122456029824,-0.0051837141109127,0.0141198315201217,10.073991331310284,0.0046321668526641,0.0594234524019206,0.1650108312450074,-0.0044178865449225,1.6197820636223343,1.2042210054055376,1167.1806661012963,1137.7833532335392,1138.6091759119804,1163.9536343792065,368.145244271846,542.4583806002544,657.0393200048727,-234.28205202199135,160.7632928428069
13.6975,-0.3761075570074399,0.4141703485727624,0.048543731842989,-0.0035866158468573,-0.0030160852970761,0.0017856466996432,0.0051138001000955,-0.0020359120533633,0.0233225166360188,0.9997127048561076,-0.0025300314412428,0.0152017830293963,10.075406882881143,0.0046173967291365,0.0595407241320385,0.1656473487857692,-0.0044108118266147,1.6199186723319128,1.2046330434955619,1167.9903992215443,1139.3527532753715,1140.5558861467523,1163.2734257133231,224.4069534888344,567.1489392351327,739.4066627818783,-235.6241545315784,160.7632316752253
13.7,-0.4623930698620841,0.4967708496192084,-0.126143251084481,-0.005123901219145,-0.0011527150738107,0.0017562345736567,0.005110737457075,-0.0020270970544138,0.0233105242987199,0.9997130327565502,-3.30212009691383e-05,0.0158418642912755,10.076645563983732,0.0046030916340309,0.0596697449964851,0.1662981625393628,-0.0044024142814737,1.620058163329178,1.2050449294240186,1168.3027008687407,1140.6190979297153,1142.3062092258904,1162.7755136065484,67.64579461408937,456.0327018382592,682.7564815834489,-154.30946390695087,160.76314406364287
13.7025,-0.4748821661508302,0.5109647368617894,-0.2958535628356872,-0.0077854603555035,0.000973558067803,0.0012714080119963,0.0051052266324545,-0.0020153714531842,0.0233079331704633,0.9997131561925884,0.0023395707722733,0.0160359634007233,10.077658519031203,0.0045876494709172,0.0598052504313534,0.166965797593123,-0.004393809358555,1.620200698025731,1.205456954541715,1168.328628194615,1141.6329167845631,1143.96966855467,1162.5018783937885,-17.482247375077186,360.78679291443126,660.076634661113,-46.30841807307673,160.76301602088824
13.705,-0.3760843334660177,0.4363548216691094,-0.4703451408746054,-0.0112334983055809,0.0035115525770205,0.0002570398402138,0.0050998129855074,-0.002007543419159,0.0233136215836188,0.9997130735178884,0.0047192238299483,0.0158311240729213,10.078394664521843,0.0045714154160807,0.0599419640277124,0.167651681428264,-0.0043852659422005,1.620346596422276,1.205869546962608,1168.2152896318653,1142.423031894287,1145.6065923991953,1162.543971516183,-37.64628145787195,215.417286844374,506.54727774068374,82.84355806460383,160.76281305315604
13.7075,-0.2024734968590842,0.3021528834546807,-0.5734740383837165,-0.0134077433133011,0.005257439183193,-0.0010181433857535,0.0050971386230355,-0.0020095533279794,0.0233263223088787,0.9997127887767134,0.0072234485008766,0.0152889610550172,10.078803711117896,0.0045553293094567,0.0600744086794941,0.1683561940771986,-0.0043768553267127,1.6204962898341613,1.2062823353411123,1168.1403967873257,1142.7100032187848,1146.5024049433728,1162.9160961841114,-4.231202668460603,48.13863947514776,229.47280503109192,213.8433845718857,160.76260107889274
13.71,0.0334165584274371,0.1136778003195215,-0.6108675768619966,-0.0143687334539031,0.00599698369502,-0.0028581160004981,0.0050983691839613,-0.0020231097698778,0.0233439402561616,0.9997123420557448,0.0098856025500575,0.014455282728347,10.078839400234452,0.0045396968143692,0.0601969060297639,0.1690786649364212,-0.0043694720622716,1.6206493791549073,1.206695696652166,1168.1941336185228,1142.6637250916629,1146.7539564243507,1163.6131884390427,44.894377706298,-60.666309477655496,-21.222987739471456,320.70507619659554,160.76234273791837
13.7125,0.2818593040491004,-0.0970868379833163,-0.5799344198790546,-0.0141119797516436,0.0057298749645867,-0.0051490963326367,0.0051026609912171,-0.0020490352925122,0.0233628250163677,0.9997118225598944,0.0127203777382668,0.0133467486554944,10.078462238962773,0.0045251417365545,0.0603038734301889,0.1698172204909105,-0.0043637275379258,1.6208057810921979,1.207111008142826,1168.3648686758572,1142.4066716713965,1146.3962900046756,1164.5196215650947,81.7538271314951,-137.1808463792877,-294.77963003438566,388.6588267151956,160.7620446491574
13.715,0.491605437291254,-0.3077163809570921,-0.459722205957301,-0.0121284137208944,0.0045955732484358,-0.0076165237215061,0.0051061942982615,-0.0020830920227645,0.0233788405823178,0.9997113559070964,0.0156379002837619,0.0119315655052828,10.07764273652508,0.0045111252489015,0.0603899798930543,0.1705688547228875,-0.0043598822921122,1.6209642358343492,1.2075298251945925,1168.6029027541804,1141.9778208597663,1145.2800582741793,1165.5564825726183,86.9817632314471,-209.82125517144956,-652.0101390833478,444.93513212148486,160.76169721340366
13.7175,0.640004367648241,-0.5352795104573035,-0.2244649127815716,-0.0080997617050375,0.0027277099288117,-0.0099981234225754,0.005106804032642,-0.0021175588039038,0.0233884688945572,0.9997110519632652,0.01847661215145,0.010219661858613,10.076362699287374,0.0044963783665608,0.0604520628575532,0.1713289940666,-0.0043579271899907,1.6211231210625143,1.2079535628000944,1168.7997774920143,1141.357565395539,1143.1362393092584,1166.7442972257024,30.729875887250017,-232.90979040831184,-893.1271804451594,393.36577929610246,160.7612216086059
13.72,0.656703790858204,-0.6941231265273314,0.0214579084523725,-0.0044097625386524,0.0010558034736626,-0.010932201660471,0.0051043322034306,-0.0021492233362475,0.0233889218315795,0.9997109838711116,0.0211635307899658,0.0082632014991331,10.074616503271434,0.00448138636321,0.0604893798531737,0.1720917528219487,-0.004357201914842,1.6212813857240522,1.2083827416947055,1168.7565521336167,1140.8132719077248,1140.8144223719528,1167.523311469099,-83.73343540744673,-208.28795885240248,-989.0660309120595,234.575340538778,160.76077532229235
13.7225,0.5727118809183162,-0.8158098528707548,0.2728861212804479,-0.0018363267678302,-0.0006587661187496,-0.0101219422082568,0.0050991053249772,-0.002176486627846,0.0233798691946157,0.9997111622522205,0.0236546848778857,0.0061241843517305,10.07241290144134,0.0044674053447408,0.0605030988423905,0.1728506182855716,-0.0043562833144998,1.6214383944953012,1.2088164882625272,1168.3811103149771,1140.3161256012772,1138.190909154699,1167.917173928396,-210.07940826875344,-178.37051471996259,-1050.911708391077,79.69546787236817,160.76027611226928
13.725,0.4343429136288346,-0.9036889167651244,0.4920820018041729,-0.0008139332969316,-0.0024737114602443,-0.0079717926071669,0.0050881817631464,-0.002197704497542,0.0233614350714705,0.9997116047503852,0.025899263911184,0.0037968485167257,10.069776503571248,0.0044555535224675,0.0604948713118157,0.1735993969780429,-0.0043546947690156,1.6215924173599683,1.2092548744771574,1167.706155092273,1139.9214193341252,1135.5598638299984,1167.9217888084609,-329.1095104240807,-117.23455691074363,-990.7913513724269,-89.10944369398266,160.75973234609725
13.7275,0.2724138743645376,-0.9444547553381982,0.6408284978276118,-0.0013428928861119,-0.0045133384665231,-0.0051929180357559,0.0050697300645635,-0.0022127478760479,0.0233358988268606,0.999712270795124,0.0278732195674177,0.0012925196749304,10.066746263524504,0.0044476339429942,0.060467972529889,0.1743321058037572,-0.0043527525620272,1.6217425052978556,1.2096973961306772,1166.7355627628567,1139.7299528167234,1133.236952397836,1167.471626709926,-458.3805922714157,-19.850950042197464,-877.0833835699699,-271.66742877007283,160.75913433308995
13.73,0.0879777063283462,-0.92657036507873,0.7237367104148892,-0.002336050764123,-0.0075748607795482,-0.0021675524535569,0.0050455065303091,-0.0022226025917507,0.0233068325803102,0.9997130700308748,0.0295724238109776,-0.0013123344504292,10.063373846438463,0.0044459746783903,0.0604276826767105,0.1750430679104531,-0.0043509407132261,1.6218891554347319,1.2101436586468544,1165.4142521309157,1139.822164583914,1131.174446912148,1166.5634516646103,-476.09999422329935,94.23500232221214,-597.4072530910513,-354.77133292490873,160.75835396972667
